acc_x, acc_y, angular_z, stamp, 
-0.03805025353828291, -0.006958724924195212, -0.000184071396463918, 106970000000
-0.05594089749954543, -0.011633795203250736, 9.120490528114126e-05, 106976000000
-0.06372081943889701, 0.004463399410716099, -0.0003787185061895264, 106981000000
-0.06461168584849872, -0.0029638040243045267, -0.0001970837513304273, 106986000000
-0.05365567868974658, 0.022385370164313776, 8.177457073697269e-06, 106991000000
-0.04294259451935287, 0.03866384306295135, -0.00010505797068164621, 106996000000
-0.033869060855080665, 0.04202069883773856, -0.00010091301409358901, 107001000000
-0.02940062139107489, -0.013767981758556744, 0.00019911019716915238, 107009000000
-0.04410075350889128, 0.004546902225674683, -5.239781904034464e-06, 107014000000
-0.025425351926603522, 0.017312314678118456, -0.00018857551013561942, 107019000000
-0.05264691260269367, 0.005147173912510226, 4.1923227240763206e-05, 107024000000
-0.09741906120991933, -0.014791521233375536, -0.0003100249850315291, 107029000000
-0.0556593392032021, 0.014663455586632044, -3.74083431071197e-05, 107034000000
-0.03488894607469058, 0.007639318860287406, -0.0002415907963778966, 107039000000
-0.04594255301775408, 0.0031942923841138922, 7.687872529578867e-05, 107044000000
-0.08889591598188315, 0.002020919741606119, 0.00036931051321905897, 107049000000
-0.06889793405497277, -0.008928735489541925, 0.00023041800338234543, 107054000000
-0.06985198447850476, 0.01498135708190562, 0.00012156551249413505, 107059000000
-0.04432857867664757, 0.006111863950818836, 0.00028637249040168054, 107064000000
3.332038332996373, 0.007992023106480318, 0.006331933917362249, 107069000000
-0.18369243189282985, 0.0018891176571307067, 0.03593102928099942, 107075000000
-0.08724968116739974, 0.05635457079854171, 0.06379953142208439, 107080000000
0.026610272028832087, -0.04444794892069507, 0.1133877939976924, 107085000000
-0.23792326315105825, 0.11436344130482991, 0.15801337424930026, 107090000000
-0.06402075672646512, 0.025724540011349866, 0.19357552119158186, 107095000000
0.07317373779941636, -0.15345622260511105, 0.22768629147597802, 107100000000
2.282815095685057, 0.13850355323292002, 0.29431321791021103, 107105000000
-0.03945900035681249, -0.10708620471011053, 0.36316509549039594, 107111000000
-0.201739408486324, 0.10636516093916153, 0.4215016709834857, 107116000000
-0.07674595095672851, -0.019588522981562183, 0.4844055053257401, 107121000000
-0.05673839546915863, 0.015991553253546925, 0.511950952150719, 107126000000
-0.05061832456525671, 0.03537591626712389, 0.5569675634941941, 107131000000
-0.05703524658570023, 0.03320767716730433, 0.5771717681919862, 107136000000
3.690938684494485, 0.014780946383407573, 0.6108556005959419, 107141000000
-0.030788763215522832, -0.06568194140619452, 0.6340282391265583, 107146000000
-0.1481444563256492, 0.13131112718273902, 0.6521286775468638, 107151000000
-0.0858330720909797, 0.0167818418415579, 0.6631502850365664, 107156000000
-0.03447168701577839, 0.04370771415706853, 0.6682577721256567, 107161000000
-0.02237481352091689, 0.038210416175503345, 0.6667771522460594, 107166000000
2.9329804400317476, 0.022766864553821098, 0.667978259719725, 107172000000
-0.11922210681505863, 0.08792537126971392, 0.681027886146464, 107177000000
-0.11231204894786209, 0.02802723086183134, 0.6997630030826296, 107182000000
-0.06373097304190774, 0.06906868043407138, 0.7177069625499118, 107187000000
-0.09117526471642494, 0.07280159932115432, 0.7521741373096483, 107193000000
-0.07917251121960192, 0.0444269672555507, 0.7776466059540799, 107198000000
-0.05847652794698327, 0.03907303511321257, 0.8014806319587611, 107204000000
3.5904405769077066, 0.06935707570877614, 0.8442739723921046, 107209000000
-0.13358201097389105, 0.09932483834042274, 0.9072867295806932, 107218000000
-0.05091561116890288, 0.06479068893063272, 0.9536408003252927, 107223000000
-0.04027110153327759, 0.1012012301269822, 0.9877708150493337, 107228000000
-0.029180761066111813, 0.09346181029431203, 1.0162064972658735, 107233000000
0.8369942014752868, 0.09598212018738814, 1.0371362359631597, 107238000000
0.14339230743262418, 0.07990656259781882, 1.0566759078886134, 107243000000
-0.07249516869634262, 0.10248507948874429, 1.0686145811791135, 107248000000
-0.048271117028308025, 0.08364549432901397, 1.0802281832106515, 107253000000
-0.07820410703573953, 0.08609713647280562, 1.083730903967108, 107258000000
-0.03773256507031917, 0.10752991774490753, 1.082689463919178, 107263000000
-0.05500283432261576, 0.09010115295683845, 1.0747587734277486, 107268000000
1.9431745104179452, 0.10672098986413027, 1.063748120011592, 107274000000
-0.008635961422461529, 0.13379106570550406, 1.0460516594752916, 107279000000
-0.015908176196453266, 0.12817134929288887, 1.029120041553047, 107284000000
-0.009133348279592328, 0.1189831486723221, 1.0152963785129945, 107289000000
-0.021153812989418104, 0.12274619092100435, 0.9942873875458819, 107294000000
-0.011284158362955859, 0.09022668881394312, 0.9787925035249926, 107299000000
-0.029455384733932465, 0.10845041323253442, 0.9655501715377994, 107305000000
-0.01721500119320356, 0.10371329838348832, 0.9536082879150496, 107310000000
-0.05254831704236666, 0.11282472856711366, 0.9490418088233781, 107315000000
-0.05611841625710506, 0.10089701681504848, 0.9466828854735504, 107320000000
-0.0333189530353978, 0.10358608932304214, 0.9483602105783736, 107325000000
-0.02476992483309907, 0.09437845623269245, 0.9572166564549668, 107333000000
-0.05179747066150041, 0.13552236899578457, 0.9661362869825078, 107338000000
1.1038139096140482, 0.07703274793274957, 0.9845274341785574, 107346000000
-0.05539746642147564, 0.12262718726357698, 0.9883636667820492, 107351000000
-0.0657249824056612, 0.11695956180958368, 1.003673616406227, 107356000000
-0.06270859881238391, 0.11323247869973192, 1.0129898303613072, 107361000000
-0.03095818570409303, 0.1027057813150177, 1.0203719016884174, 107366000000
-0.02670459258379638, 0.16380438108486595, 1.0263084198961336, 107371000000
-0.05265860037815149, 0.13860813148627296, 1.0294473212826982, 107376000000
-0.02703101344336448, 0.1283615124576636, 1.0310915803649485, 107382000000
-0.023653209952018146, 0.08529514592921515, 1.0301885030153084, 107387000000
-0.021974976007062053, 0.08748521050520625, 1.026710474169888, 107392000000
-0.05529614801643527, 0.10635736286074363, 1.0221317772821998, 107397000000
-0.026262898646783172, 0.09698298998135978, 1.0173386810136513, 107402000000
-0.032872305651545315, 0.10455395535349428, 1.0103946404723319, 107408000000
1.6463149071927816, 0.07844034975099816, 1.002556832988787, 107416000000
-0.049860028566216345, 0.10617738262293153, 0.9940141838744943, 107421000000
-0.07134233067012144, 0.09667271766146122, 0.988723732097783, 107426000000
-0.06584080452440565, 0.10984482534713991, 0.9853554525054438, 107431000000
-0.0603256742661229, 0.08496038552033056, 0.9826374566593759, 107436000000
-0.04902369908552233, 0.0995109448300515, 0.9817079530955062, 107441000000
3.3746442503750433, 0.04954445120725903, 0.9815758573228817, 107448000000
-0.06293488189167525, 0.08648934327768307, 0.9836146955780365, 107453000000
-0.04021733598646901, 0.1325911127424073, 0.9877196832153787, 107462000000
-0.056083792770301594, 0.1352699168704342, 0.9929192320479255, 107467000000
-0.04051305710526239, 0.10423455229961036, 0.996565338921164, 107472000000
-0.06213672638110845, 0.10995544794043544, 1.0001875325349918, 107477000000
-0.04496721170960896, 0.10503030878102415, 1.0025737059718878, 107482000000
-0.06268473620995532, 0.1541637102206807, 1.005429732697575, 107487000000
-0.06715025830275613, 0.1414060827500415, 1.0077483535557032, 107492000000
-0.015635138619502914, 0.13012379754725642, 1.0092557571592224, 107497000000
-0.03605019456253856, 0.13335769641225956, 1.0105928792746954, 107502000000
-0.05447603840179808, 0.13200411614853905, 1.01055327153364, 107507000000
2.425702945224105, 0.0973271777996834, 1.0096060449507966, 107512000000
-0.026403289832398463, 0.13285011865425628, 1.0083374561241276, 107517000000
-0.017554627030025312, 0.16201978376470433, 1.0067603612059304, 107522000000
-0.07987661730042908, 0.12838643522901788, 1.005060135667927, 107528000000
-0.06005669317460902, 0.14581338149839015, 1.0009274516832618, 107537000000
-0.07307918741655005, 0.14156984180235968, 0.9987975605096199, 107542000000
-0.020101370208839984, 0.10589923534308521, 0.9969290428057422, 107548000000
-0.05372189507214156, 0.14059099864137678, 0.9952953317604442, 107553000000
-0.04852142614770205, 0.16649827790348515, 0.9946401308492557, 107558000000
-0.025541455205803767, 0.11709155411819429, 0.993959402160275, 107563000000
-0.05298343535718688, 0.12641917498170757, 0.9935507859125104, 107568000000
-0.05488989302095937, 0.16102762892976408, 0.9940543414752194, 107573000000
1.4021134806098825, 0.16972862372566982, 0.9950042432096887, 107579000000
-0.027279389401752282, 0.1499376819356118, 0.995902540117311, 107585000000
-0.063358899653612, 0.15962515242932912, 0.997325633833155, 107590000000
-0.05105491193970016, 0.14454701895924085, 0.9986230876547308, 107595000000
-0.05950810865393223, 0.18508012165095505, 0.9999645403904023, 107601000000
-0.021602935795359185, 0.16267949108960944, 1.001210590735206, 107606000000
-0.05518973926943081, 0.17363674733911186, 1.002538129686014, 107611000000
-0.06638754215671767, 0.12179806614103536, 1.0030859173546611, 107617000000
-0.072651155192017, 0.167118996402007, 1.0035593711814583, 107622000000
-0.08776057874797925, 0.1561109930947545, 1.0033463066442434, 107627000000
-0.011307096245606087, 0.14700115663923766, 1.0035693665886651, 107632000000
-0.06036713085178784, 0.14043266745762978, 1.0030308485555626, 107637000000
-0.05965742983324647, 0.15678121365438197, 1.0023757311921508, 107642000000
-0.08294923693833262, 0.12922582346638403, 1.001638100580163, 107647000000
-0.05095874741155322, 0.17140162560701414, 1.0008547629970779, 107652000000
-0.06122722559210946, 0.14367974608118944, 1.0003997235439133, 107657000000
-0.07055409422711847, 0.15635736351738228, 0.9992158393820999, 107662000000
-0.02927729237757158, 0.14743640767151234, 0.9986801271339778, 107667000000
-0.014826169501100078, 0.16676458664296373, 0.9976780187390492, 107673000000
-0.06382880968243884, 0.1624839420684121, 0.9974801277702998, 107678000000
2.0037465297357397, 0.16542413320698823, 0.9973704086540671, 107683000000
-0.06961602723607145, 0.1792595830110079, 0.9971853810464745, 107688000000
-0.0662096101051652, 0.16412477092349656, 0.9974981399349643, 107693000000
-0.042693274656849536, 0.20638603803870173, 0.9977901248277135, 107698000000
-0.05209880268593361, 0.16641391666590125, 0.9984081830713184, 107703000000
-0.04071700688493902, 0.18930347556652258, 0.9987157029568994, 107708000000
-0.04268131076275462, 0.18703596330701044, 0.9998204999581256, 107713000000
-0.032514211669656096, 0.16838618989230125, 0.9998634426057208, 107720000000
-0.05419510343952026, 0.1401065368573287, 1.0006583855398423, 107725000000
-0.039724975345234476, 0.1805733642509859, 1.0010785269519675, 107730000000
-0.06280537015193724, 0.17792854654224677, 1.0011562806354997, 107735000000
-0.07200560088206961, 0.1839996597352761, 1.001212094298644, 107740000000
-0.04261525930330741, 0.1835386774939308, 1.0012759772640016, 107745000000
0.43987681247160615, 0.32442599343727074, 1.0010697075057253, 107750000000
0.8356901872550202, 0.1425237002372431, 1.000717769121848, 107757000000
0.028207744628940858, 0.18886582572606966, 1.0007955105683293, 107762000000
-0.17477407932307623, 0.14708476728627337, 1.0006311670028905, 107767000000
-0.06675840051133891, 0.19483176628542428, 1.0002497979065768, 107772000000
0.0276122519571822, 0.22645712174529886, 0.9999184630641522, 107777000000
1.5118963401058643, 0.13246340173398394, 0.9999615575495091, 107782000000
-0.018094614694254416, 0.18620989061962037, 0.9999693248549401, 107787000000
-0.06672660669032789, 0.17514663502582853, 0.9996079536355079, 107792000000
-0.08112352642947533, 0.18605759594815147, 0.9995921524700037, 107797000000
-0.03565668585103871, 0.17694384035217314, 0.9993919331997078, 107803000000
-0.0684452457951329, 0.18682336886510387, 0.9993352840787686, 107808000000
0.05703011168711969, 0.21179891213569196, 0.9995028667289785, 107813000000
-0.19366254961036977, 0.16484729749749505, 0.9992364907228347, 107818000000
-0.04885106111693802, 0.19958008581992104, 0.99890203999336, 107823000000
0.053474753635734146, 0.2316482278859497, 0.9988816445098229, 107829000000
-0.1526393592506825, 0.18464261215357244, 0.9992431392353446, 107834000000
0.059944482336263455, 0.18320225063563408, 0.999170384463602, 107839000000
-0.06500588674786126, 0.16262568420841514, 0.9993348221911773, 107844000000
-0.17586387263110867, 0.17584050471585055, 0.9989722546502258, 107849000000
0.05163596160027542, 0.2000079649336959, 0.9994787542936973, 107854000000
-0.00976294886521653, 0.23349501728672717, 0.9992900529317373, 107860000000
-0.19479992781230254, 0.1987021518330593, 0.9995374907342254, 107865000000
0.02362217605614144, 0.22705493315679115, 0.9993193962229466, 107870000000
-0.2022680402613117, 0.19449395445419235, 0.9994007078154549, 107875000000
-0.027906325776726817, 0.19303668687234687, 0.9994679757705585, 107880000000
2.088432669080336, 0.18398402283229473, 0.9997716897211496, 107885000000
-0.13014225740896557, 0.19731948024387447, 0.9995628536243724, 107891000000
-0.0727720966417268, 0.2025209425492802, 1.000115648618321, 107895000000
0.04290953317465916, 0.24704361788394089, 0.9998278823140397, 107900000000
-0.15398758775216762, 0.19952667060486615, 0.9999770292390151, 107905000000
-0.036335640891236996, 0.19132141038086847, 1.0001714683940683, 107910000000
0.061067367341823955, 0.17863863706225921, 1.0002605674484644, 107915000000
-0.16123025166698082, 0.21384548285318067, 0.999579150530962, 107920000000
-0.051279379402961754, 0.2263376592098058, 1.0003517492303664, 107925000000
0.09505720489067343, 0.23828817897622429, 0.999957948843285, 107930000000
-0.14328680328288412, 0.21844995233066042, 1.000012929147241, 107935000000
-0.031072697123771417, 0.20919351036672415, 0.9994969197323146, 107940000000
0.036127211069277146, 0.20003406989238998, 0.999832603982377, 107945000000
-0.184612748736396, 0.21608357052964366, 0.9997762760701442, 107950000000
2.0101623252259215, 0.2205723433875259, 0.9995593137721367, 107955000000
-0.06181661590515358, 0.22397618443621478, 0.9995375479207869, 107960000000
-0.07113293217306697, 0.23653432612231146, 0.999145019138025, 107965000000
0.04759793509869913, 0.20433943403640362, 0.9996869962337164, 107970000000
-0.11543872066011732, 0.23322176597193117, 0.9994569523868352, 107976000000
-0.05511860169376993, 0.20618294704271212, 0.9996569085881343, 107981000000
-0.039515846736617115, 0.2176066818781687, 0.999765006344734, 107986000000
-0.06568164229634549, 0.2211952601628747, 1.0003414632665852, 107992000000
-0.0489917272805948, 0.2520715406754918, 0.999812601018926, 107997000000
-0.05407350729545998, 0.24578859593078006, 0.99988832099047, 108002000000
-0.06790377469609642, 0.2256292088815777, 1.0001808560652927, 108007000000
-0.08170073226018851, 0.22843911607833736, 0.9996125165986764, 108012000000
-0.04997596538117342, 0.2622976782087337, 0.9998476883305121, 108017000000
2.014178986119319, 0.20227150125648194, 0.9997807889258077, 108022000000
0.0004367241618987651, 0.2202326586110422, 0.9996000189773697, 108027000000
-0.18017075443378944, 0.2789121386827678, 0.9995758431937365, 108033000000
-0.05145241337512848, 0.22896381686278838, 0.9998015114105162, 108038000000
-0.08115256294404799, 0.24351223294354493, 0.9997797349885081, 108043000000
-0.034164790099892296, 0.24069755151087435, 0.9998639938230556, 108048000000
-0.06501933571769203, 0.24682586597059272, 0.999945085106877, 108053000000
-0.0382104906351336, 0.2487266805739923, 0.9997968784901218, 108061000000
-0.07720879916591511, 0.26696268872313483, 1.0000898753623417, 108067000000
-0.021391470634817854, 0.22577562570389792, 0.9999949335639957, 108072000000
-0.04042652891164736, 0.23814950788840486, 0.9997442244354843, 108078000000
-0.051869590991490584, 0.2504164781017676, 0.9996084936493488, 108083000000
1.6212171767884895, 0.232187859116807, 0.9991317525197371, 108089000000
0.018955657501911954, 0.23813661744291706, 0.9996832348175303, 108094000000
-0.053180500492277336, 0.27673418622556556, 0.9997404963530341, 108099000000
-0.04907341673714999, 0.2663744551387032, 0.9993687706244697, 108104000000
-0.03764893896166374, 0.25904174423314713, 0.9994813626825786, 108109000000
-0.017095278383099072, 0.25670497727065755, 0.9998503149678963, 108114000000
-0.0564441195901725, 0.25711089051393643, 1.0002993650403207, 108119000000
-0.05416932198814921, 0.25041463911091605, 1.0008633567376857, 108124000000
-0.0543441637678795, 0.28608411240233333, 1.0005887637237105, 108130000000
-0.07995508879895569, 0.23139367631843827, 1.0002464783606975, 108135000000
-0.039359138254863126, 0.24646290736395202, 0.9998897375208275, 108140000000
-0.06108311059638182, 0.24814357786118915, 1.0000844981385761, 108146000000
-0.024242197496741853, 0.23660902755078816, 0.9995678603919175, 108152000000
1.9871541800901844, 0.2793784225474174, 0.9996524353639741, 108157000000
-0.009835640715394783, 0.2753601430515462, 0.9996349603747694, 108162000000
-0.10470876457076586, 0.25672049853726414, 0.9994846540716236, 108167000000
-0.04592713326511565, 0.28644225305801946, 0.9999281386381054, 108172000000
-0.027911014412370285, 0.2638533232709412, 1.0000364359946683, 108177000000
-0.0523714726336686, 0.26740029682542815, 0.9998069459384309, 108182000000
-0.04967339766493061, 0.24567625789163108, 1.000228378931625, 108188000000
-0.0346816838432622, 0.2600903242278452, 1.000625477213378, 108197000000
-0.07441180146812262, 0.273642362055968, 1.0005571074400923, 108203000000
-0.0681012349211326, 0.2606769226363078, 1.0000898728974492, 108209000000
-0.03419394478263181, 0.2998484756646021, 0.9998739855139178, 108214000000
-0.03505494707104481, 0.24728657184744934, 1.0000910346780445, 108219000000
1.649804756003587, 0.2612449926129881, 0.9995706172057185, 108224000000
0.32091470656893273, 0.2933948496362806, 0.9996449387076857, 108229000000
-0.036115837964760505, 0.29725233907468296, 0.9994615903978603, 108234000000
-0.05982754089657101, 0.29870705048028273, 0.9997365537609111, 108239000000
-0.03420676030894264, 0.2758274401126648, 0.9999832449544118, 108244000000
-0.07272274405730764, 0.2828521815761855, 1.0000075271162794, 108249000000
-0.04196968682812744, 0.3095397150701238, 1.0005465831227334, 108254000000
-0.06583754991688637, 0.2967796515098758, 1.0006937164408183, 108259000000
-0.05430176136763276, 0.28905138670898306, 1.0009766684494805, 108264000000
-0.03664532830653838, 0.2856814732569077, 1.0005898831761957, 108269000000
-0.04593752461176474, 0.2627882566779748, 1.0004518505147064, 108274000000
-0.06880347095069508, 0.30304964057570194, 1.000499520951982, 108279000000
-0.040421119508950526, 0.2689562916922159, 1.0000482271229008, 108284000000
-0.03658387970180238, 0.2776207904273101, 0.9999290562572667, 108289000000
2.000987109933135, 0.27246964483012803, 0.9997167936408374, 108294000000
-0.05841153786324023, 0.32126803083505245, 0.9993767139991689, 108299000000
-0.08939690227092559, 0.29355331654721384, 0.9994742501764803, 108304000000
-0.05394437380168418, 0.31456102090800675, 1.0000015371637934, 108309000000
-0.03378857997461038, 0.310652459728059, 1.0001595219676758, 108314000000
-0.06096857848687024, 0.31694363315634366, 1.0002436723934236, 108319000000
-0.03279854303368775, 0.2760667278993326, 1.0010351822870263, 108324000000
-0.07519253209710361, 0.31254900260928553, 1.0010932936693178, 108329000000
-0.037421504119179085, 0.3070305040021616, 1.001094727346562, 108334000000
-0.03787769843123646, 0.31522489381246027, 1.000854777628034, 108339000000
-0.05778479614094363, 0.32595023913232274, 1.000952008852903, 108344000000
-0.030387437476067466, 0.30205902583130145, 1.0004625868092445, 108349000000
-0.0718730859204047, 0.2781572242254308, 0.9998739347336156, 108354000000
-0.0749250576746911, 0.30379383387096925, 0.9999644297275662, 108359000000
-0.04388417997571213, 0.2837226776536467, 0.9999421201704373, 108364000000
-0.05236463959173717, 0.2904781781808304, 0.9992388178829161, 108369000000
-0.034482452754979506, 0.30254022155730775, 0.9989061828791834, 108374000000
-0.046930547642908604, 0.3209020404926871, 0.9991123391640476, 108379000000
-0.02818274659089484, 0.30168073206279544, 0.9993303618087533, 108384000000
-0.014302107969686388, 0.3061903300639121, 0.9988001342012148, 108389000000
1.6346800745332124, 0.3216855914120025, 0.9991463630907166, 108397000000
-0.024551430791010017, 0.2860365697446247, 1.000163944754101, 108402000000
-0.04714386938936481, 0.31173396509484896, 1.000119837762496, 108407000000
-0.012839099547815477, 0.2979077396783453, 1.0008300641895154, 108413000000
-0.05463226915522285, 0.3189288335866981, 1.0020304421449056, 108419000000
-0.058980495472110636, 0.3265974167814991, 1.0025961115738935, 108424000000
-0.021883236913700546, 0.2986471804555659, 1.0032163362114517, 108430000000
-0.037586341120383414, 0.3192535591001332, 1.0033886523531241, 108435000000
-0.04904007411194939, 0.2849735331658646, 1.0035243147411423, 108440000000
-0.03493187125718009, 0.31605951798117105, 1.0032125607865057, 108445000000
-0.019603258902339247, 0.30839130470804144, 1.0031513756829313, 108450000000
-0.04027452090079524, 0.2901992275179704, 1.0025705909633424, 108455000000
-0.027504992470568312, 0.2768895902526767, 1.0020730560797833, 108460000000
2.0211964365015174, 0.36008847729494176, 1.001080430890186, 108465000000
-0.08109911057920997, 0.29803226720076653, 1.0007632075822952, 108470000000
-0.034570142292721345, 0.3052374608554758, 1.0003457871335197, 108475000000
-0.041208484047666444, 0.2910045110780093, 0.9999646312314753, 108480000000
-0.07415999300697086, 0.33690135771657953, 1.0001339385828634, 108485000000
-0.052641261020493595, 0.3237455430209521, 1.000411484571717, 108490000000
-0.05350804136191444, 0.294881228399069, 1.0003058089350598, 108495000000
-0.05658182490808602, 0.3108900385929058, 1.0009452945547728, 108500000000
-0.04036910496653996, 0.2987271783354757, 1.0010349143991086, 108505000000
-0.018362331817089985, 0.3131212140455076, 1.0009434632689467, 108511000000
-0.04188719578807159, 0.3193431626577414, 1.001103125380345, 108516000000
-0.41163676614446176, 0.27704722029635676, 1.0016748412574856, 108521000000
-0.14910913869486414, 0.37795735178259277, 1.0049703138029888, 108526000000
1.5483728924196978, 0.4797914808647085, 1.0115305994083676, 108531000000
-0.09430545890600897, 0.40568832216541123, 1.0173362014857945, 108536000000
-0.15423988420378215, 0.3584620855446692, 1.027966085816499, 108541000000
-0.08414967771616533, 0.37137593459892465, 1.0371114970782094, 108546000000
-0.1049121932861814, 0.35785686762346347, 1.0459867649282382, 108551000000
-0.0207661873444725, 0.3422940037460055, 1.0552042004806639, 108557000000
-0.0035650717835766996, 0.33340550636465555, 1.0649257873625324, 108562000000
-0.012116857346546897, 0.36769472304505946, 1.0693171567526076, 108567000000
0.041958526308522925, 0.3952280941055872, 1.0726892894919842, 108572000000
0.05864638180368578, 0.34978339505743367, 1.0745378461329727, 108577000000
0.062145358444234605, 0.3796810389663069, 1.0741836270242002, 108582000000
0.04208981500621079, 0.3688687090509992, 1.0714505021707907, 108587000000
0.006499391593479762, 0.3699725430112492, 1.0675287077125741, 108592000000
0.021477989254746085, 0.37872627889905075, 1.0631697679210197, 108597000000
2.063536655738125, 0.3415184414575205, 1.0577001256397482, 108602000000
-0.056487278148709616, 0.35145595258176543, 1.0518077787551714, 108607000000
-0.0548449451811004, 0.33770602501676356, 1.0469418909426296, 108612000000
-0.050649000647353365, 0.3696945125589402, 1.0420402372530078, 108617000000
-0.09264749091350573, 0.334062905311458, 1.0377695903053574, 108622000000
-0.12620960346836563, 0.3692440537938843, 1.0348246087931976, 108627000000
-0.07896998535682165, 0.3875757761981966, 1.0322138819133309, 108632000000
-0.08567308320364667, 0.3816035322862315, 1.0311555545661932, 108637000000
-0.09911465975735306, 0.37896791967412163, 1.0306519479253897, 108642000000
-0.061923152263770445, 0.350240228611829, 1.0314523218122797, 108647000000
-0.07318107449234013, 0.3645654210133474, 1.032261142538998, 108652000000
-0.12321625926724747, 0.3975034781177732, 1.0343806898240573, 108657000000
-0.09984135010547787, 0.37285582249767235, 1.0352610813613303, 108662000000
-0.08786097779119423, 0.36389364449379347, 1.0392753209223662, 108667000000
-0.04132134656435615, 0.3756347779426654, 1.0419376294887226, 108672000000
-0.07092300721654128, 0.37058886851318446, 1.044446518174583, 108677000000
-0.052722153449224596, 0.35594484608658616, 1.0475269701476562, 108683000000
-0.04405739762510404, 0.3705930910051323, 1.049276298538995, 108688000000
-0.02334849890291571, 0.34937430736399205, 1.0508759490870947, 108693000000
-0.012884444190840748, 0.36855521233940164, 1.0517169693475352, 108698000000
1.73089884392274, 0.3649871103745375, 1.0530755986499376, 108703000000
-0.09071998023580423, 0.36231848328215865, 1.0531021992582459, 108708000000
-0.06835156828582784, 0.370809627822106, 1.0527825485508104, 108713000000
-0.053991991708205324, 0.39838214734139915, 1.0527015903176224, 108718000000
-0.021835540888858453, 0.41446664034829844, 1.051861257600318, 108723000000
-0.030709060402242375, 0.39671656552521634, 1.0509832085156459, 108728000000
-0.04708106094674055, 0.3796275125257908, 1.0500575679094237, 108733000000
-0.03729867013601204, 0.37087683846960323, 1.048679940906553, 108738000000
-0.03492036756663632, 0.37447556101989404, 1.0467781830933693, 108743000000
-0.03768526704965293, 0.3850269242448114, 1.0453492419012098, 108749000000
-0.04808513188101375, 0.3863349812732809, 1.0439081472689147, 108754000000
-0.06297857275918359, 0.3655815451376976, 1.0423098013057055, 108759000000
-0.06803375746570207, 0.410828817198943, 1.041255039601227, 108764000000
1.9845639483875417, 0.36817161205428983, 1.0403997190810133, 108769000000
-0.06682900737437991, 0.3929365437225377, 1.0407548323970492, 108774000000
-0.10379920514290662, 0.4047879081355664, 1.0405252284856805, 108779000000
-0.11702738236654256, 0.37248733926416655, 1.041466378143122, 108784000000
-0.1018665067063291, 0.38903955009343766, 1.0426461781545202, 108789000000
-0.08275694533304383, 0.3862565642570087, 1.0432003888239498, 108794000000
0.032875129089633, 0.32393455266248855, 1.0442161488197619, 108799000000
-0.1536969797634082, 0.3927951370040567, 1.0438643299190682, 108806000000
0.04668534815351211, 0.4737534704986505, 1.0434464304953541, 108811000000
0.042737948648904955, 0.21784048861710717, 1.0412925518313774, 108816000000
-0.14106449231502396, 0.4344062459135775, 1.0394074653538357, 108824000000
-0.03397137715593302, 0.4695806283886683, 1.0368861690617228, 108829000000
-0.13140047890729945, 0.2690140486126393, 1.0341053155139481, 108834000000
2.593939004938736, 0.4529943416929046, 1.0323503142280237, 108839000000
-0.05248632340112908, 0.3886326630432619, 1.030936212230989, 108844000000
-0.1886088203592413, 0.40521029172261686, 1.030242648635791, 108849000000
0.057855428309808346, 0.5837998214370842, 1.0295949535987792, 108856000000
-0.11529522255290174, 0.34386576842136957, 1.0296809218529508, 108861000000
-0.013957874966684464, 0.47781158373040705, 1.0305192709366575, 108867000000
0.0034421498122129707, 0.12550846076575947, 1.0306437091143001, 108872000000
-0.10175190378715741, 0.4975051461996014, 1.0310471198824356, 108877000000
-0.10095816076875214, 0.269945599326043, 1.0314546217766014, 108882000000
-0.10612799264651272, 0.44546474583479406, 1.0322212877359407, 108888000000
0.013227563071849724, 0.5326023851344668, 1.0321682033125026, 108892000000
-0.06357919613059583, 0.2728498469834502, 1.0330813503867162, 108897000000
-0.07480513269559567, 0.5079860153017288, 1.0336290098070093, 108904000000
0.014968265378366973, 0.24142526894083702, 1.0336596886757066, 108909000000
-0.05499629693014715, 0.49878298995087295, 1.0338040571694, 108914000000
-0.10138933609770351, 0.44913752436295623, 1.0342724419013223, 108919000000
0.09968208154162385, 0.2074189265418808, 1.0335805533377194, 108924000000
-0.13183027447156814, 0.5322574022791011, 1.032570192579201, 108929000000
-0.17560749571342815, 0.42189372390871294, 1.031770838430451, 108934000000
1.6340780061420155, 0.3005439443466604, 1.031406326131872, 108939000000
-0.005587043225489563, 0.5103778690699351, 1.0315324112317426, 108944000000
-0.014508126131075652, 0.24779929101427112, 1.031186983322044, 108949000000
-0.1458150052406394, 0.5593283907160811, 1.031714439608442, 108954000000
-0.0788571770632921, 0.40590237355413833, 1.0316302538322817, 108959000000
-0.1020647947292975, 0.31053225175457505, 1.031580054246768, 108964000000
-0.014077544894231658, 0.49240471167492394, 1.032174413652459, 108969000000
0.0037933676126922786, 0.3335142113050325, 1.0330503617079725, 108974000000
-0.16354594281929113, 0.39597495539808447, 1.032886680754836, 108979000000
0.034150608136386415, 0.49472263130776023, 1.033094483376569, 108984000000
0.04122993676018556, 0.2608859495144696, 1.0329752054103536, 108989000000
-0.16717602717337177, 0.48085450420273607, 1.0328493515451276, 108994000000
-0.01869373647619261, 0.42122910484109055, 1.032512931488471, 108999000000
-0.05926982867608183, 0.3000469018233721, 1.0322073470734052, 109004000000
2.0301547486040192, 0.5237343736171852, 1.032326281091993, 109009000000
-0.12160585076147024, 0.3743217739123305, 1.0324966945600156, 109014000000
-0.13546910552004662, 0.40038630695221367, 1.0329052244154822, 109019000000
-0.047230812156933366, 0.49647354141654815, 1.0340558135445732, 109025000000
0.047854833031850744, 0.264355800959221, 1.0338303805517766, 109030000000
-0.09495602747308099, 0.411438502433029, 1.0343707714895523, 109035000000
-0.06879035548263822, 0.5104398555167281, 1.034405821030304, 109040000000
-0.016215006023109275, 0.2636434118124637, 1.0344607553814575, 109045000000
-0.15837589691807372, 0.4813419488941443, 1.0341674338926317, 109050000000
0.155852428133334, 0.4476929456351111, 1.0334414735627997, 109055000000
-0.10114554454473797, 0.37630176228616413, 1.0313060744030698, 109060000000
-0.13329380159611615, 0.490149751631693, 1.0298663060308593, 109065000000
0.15625433145699238, 0.42330250211381404, 1.0289215055373298, 109070000000
-0.15842459772378867, 0.34587007211878146, 1.0262249154168488, 109075000000
-0.16082779706612468, 0.45156300404127847, 1.023902578046417, 109080000000
-0.029068771206339473, 0.43477252408376077, 1.0227277058045192, 109085000000
0.09333153145168883, 0.4250860513636129, 1.021466777486814, 109090000000
-0.047575772261109595, 0.4426555276505451, 1.0187267606340702, 109095000000
-0.21075748240990122, 0.36429708089013335, 1.0168237620807503, 109100000000
-0.050910808591028936, 0.4215224603240803, 1.0154043497361205, 109105000000
2.176221032855488, 0.443656260211968, 1.0145487352750424, 109110000000
-0.04913616259055619, 0.4130277543794441, 1.0126155771505965, 109116000000
-0.05548270046739261, 0.3923430044217528, 1.0112543950809805, 109121000000
-0.007510077764037969, 0.41017345316577364, 1.0101172180333524, 109126000000
-0.054549338354265925, 0.38099418857516676, 1.0086074219070913, 109131000000
-0.05721680836305834, 0.4628418233887268, 1.0076947383923864, 109136000000
-0.047509867760272835, 0.38173763200748, 1.0065871138940619, 109141000000
-0.06460369773039656, 0.40276528816757184, 1.005005843109043, 109146000000
-0.056431417555459856, 0.4290139135631785, 1.0043009207696596, 109151000000
-0.0594572486394873, 0.42107205899643335, 1.0032641484823628, 109157000000
-0.050672747587995795, 0.4148430473703784, 1.0019418299554497, 109162000000
-0.0891599357190207, 0.4028508451640678, 1.0011623498353004, 109167000000
-0.00491130913083733, 0.40958189489091473, 0.9999259363352461, 109172000000
2.1845603099587754, 0.40399624015556806, 1.0008556380347158, 109177000000
-0.22974491320692575, 0.39336946400153605, 1.00524275960326, 109183000000
-0.0862981205869216, 0.39787185454370033, 1.010878926813381, 109188000000
0.0977460091660096, 0.44110054062285814, 1.0183526482120788, 109193000000
-0.060591895865438346, 0.45331581617509414, 1.0229504389116884, 109198000000
-0.11901955440994058, 0.4235947628118778, 1.029243589861817, 109203000000
-0.15463984864149483, 0.4579804167757994, 1.0357927536610025, 109208000000
-0.19737617503566288, 0.43512496143663876, 1.0406826116674726, 109213000000
-0.10909115022998413, 0.44329081692146033, 1.0457516859963445, 109218000000
-0.039668268424143734, 0.4569558288124208, 1.0507091697070419, 109223000000
-0.03729922570741614, 0.45000448192156894, 1.0544345816062224, 109228000000
-0.01117936432557089, 0.45927254309130944, 1.0583778085390525, 109233000000
-0.0031722648290252826, 0.4375381052883775, 1.0595412469997096, 109238000000
-0.020520571995047563, 0.43045693709827776, 1.0606257681966047, 109243000000
-0.0009193770904282646, 0.427243990159532, 1.0602368706701921, 109248000000
-0.028107470590826696, 0.4360296563567642, 1.059380370147045, 109253000000
-0.033611239992766606, 0.4696768663878972, 1.0574816857058398, 109258000000
-0.008632960234746388, 0.44005084447912945, 1.0548547440284894, 109263000000
-0.039141041449359454, 0.4047930464830787, 1.0517735193246747, 109268000000
-0.055854822938328115, 0.4506419680716476, 1.0486492513727472, 109273000000
1.6586674354321187, 0.4480754971365462, 1.0454173851792523, 109278000000
0.319076124521593, 0.48017026104128663, 1.0426886426019286, 109283000000
-0.11629144273401025, 0.4619272327528384, 1.0402551004414455, 109288000000
-0.0897080284702787, 0.4522741391209028, 1.0385795710368875, 109293000000
-0.08750514542493526, 0.43462482680121567, 1.0376098326124628, 109298000000
-0.09082034294662104, 0.45410689775493185, 1.0371363693729416, 109303000000
-0.10086307230276567, 0.39993555185585145, 1.0375490678048982, 109308000000
-0.10986729259528344, 0.44340062427998855, 1.0381122397380116, 109313000000
-0.09067096294062538, 0.45103496627737993, 1.0390980467676443, 109318000000
-0.0415956393537001, 0.4519417857314982, 1.0401162027381792, 109323000000
-0.054034833189289956, 0.4437907051190796, 1.0421521520475479, 109329000000
-0.020503087712696946, 0.4495531257254397, 1.0432596131669776, 109334000000
-0.026503693403204305, 0.445167314790122, 1.0448666787334462, 109339000000
-0.05698074523842792, 0.4409362172336501, 1.045931615534365, 109344000000
1.7203907095784061, 0.46010846605067673, 1.0470622643088185, 109349000000
-0.09268964451011011, 0.4620627729532308, 1.0485610533746643, 109354000000
-0.06708513767436902, 0.4669429662936489, 1.0495893210013536, 109359000000
-0.027297741712820206, 0.45866024112486603, 1.0502560109274495, 109364000000
-0.029512968207004955, 0.4699767528769699, 1.0508910240310174, 109369000000
-0.06024256508845603, 0.487593842460859, 1.0509785932100613, 109374000000
-0.013041678195070103, 0.44760610393300915, 1.0509577818702809, 109379000000
-0.05780404126780336, 0.44386428428707825, 1.0507097078870098, 109384000000
-0.045813538602045706, 0.44924698751857645, 1.049876848530484, 109389000000
-0.05494879916297571, 0.4797011779176238, 1.0490876344234452, 109394000000
-0.0558815718339605, 0.47081525923959805, 1.0478271543613462, 109399000000
-0.04676396302603265, 0.44881834134526677, 1.0462860916851018, 109404000000
-0.03608841374993153, 0.4717760662653384, 1.0452339051977444, 109410000000
-0.04672739946741216, 0.4784506114446628, 1.0441260840721496, 109415000000
-0.05774080956823085, 0.45591388613397804, 1.0423798635628077, 109420000000
-0.07111361755091264, 0.4310916345435664, 1.041960061682966, 109425000000
-0.040318754398009096, 0.48583064932434983, 1.041030160503266, 109430000000
-0.06653698014500002, 0.45833738553831377, 1.0408371252019664, 109435000000
-0.04173256659354626, 0.45415285591059956, 1.0404368151777734, 109440000000
-0.06541027306526437, 0.4328432903596716, 1.04069139089366, 109445000000
2.0327136426890764, 0.4543959300449937, 1.0412204785389734, 109450000000
-0.11109690734988045, 0.47678528378345736, 1.04197275792112, 109455000000
-0.09511781356185557, 0.4197163594321491, 1.0434537214976, 109460000000
0.007044923727382856, 0.4536387846300365, 1.0446429848753909, 109465000000
0.03427245377911178, 0.258462167060783, 1.0452783212694974, 109470000000
-0.14356894942228313, 0.5086460471490287, 1.0448955229743793, 109475000000
-0.03537549501887408, 0.4911195071487903, 1.0447892588147307, 109480000000
-0.0710382616795616, 0.49289038992697976, 1.0442783156145468, 109485000000
0.017249921343881428, 0.4194931806410752, 1.0436383325247955, 109490000000
0.11277588620320968, 0.46857893394761985, 1.041167272398068, 109495000000
0.09453396571854344, 0.4657606203863092, 1.0354204488692138, 109500000000
-0.11123972137247673, 0.4714755326653792, 1.0255334595355272, 109506000000
-0.05204606361839689, 0.4545290262664559, 1.0185304275831708, 109511000000
1.7151640361986622, 0.44867501324720366, 1.007751601367292, 109517000000
-0.14495251863772138, 0.46594183422690655, 0.9990498239095187, 109522000000
0.028467530965721306, 0.44085580828568255, 0.9908811583010703, 109527000000
-0.15372234802073573, 0.4147681618177764, 0.9844345566031991, 109532000000
-0.09455794873105478, 0.4353942685968185, 0.9793322740131056, 109537000000
0.062425595401029405, 0.4086945330939562, 0.9763878465910247, 109542000000
-0.15036394140092701, 0.4415227817878036, 0.9744876420800813, 109547000000
-0.004993401229764351, 0.4430584994376161, 0.9753765608354329, 109553000000
-0.057518258832969266, 0.42899080118722765, 0.9772655189627959, 109558000000
-0.14930125064180802, 0.45500070897924655, 0.9810310873913052, 109564000000
0.04908847722154156, 0.42075325146448844, 0.9862956451908257, 109569000000
-0.20476618680085967, 0.44811978930115975, 0.991142965121424, 109574000000
0.017885589974186003, 0.4170347107997294, 0.996327643323922, 109579000000
-0.12437382509458379, 0.46688643715535366, 1.0033289621616328, 109585000000
-0.0540885472500527, 0.448499662668784, 1.0065283585611293, 109590000000
0.04662767776981289, 0.4218873454678958, 1.0100391026994695, 109595000000
-0.19592450003855316, 0.4951081645312268, 1.0131436661919726, 109600000000
0.04411162611021861, 0.4758646250770917, 1.0146628465652514, 109605000000
-0.17673839660300034, 0.5308104647010194, 1.0150236359592404, 109610000000
0.028258884347762338, 0.4552792329710236, 1.0143932038642833, 109615000000
1.6554842604336337, 0.4790620507870605, 1.0127545893187975, 109620000000
-0.10827869563241185, 0.5173583705023147, 1.010888726142831, 109625000000
0.07394278954653558, 0.43240982472359313, 1.0088231606161533, 109630000000
-0.157954889705956, 0.47096417748113095, 1.0054965556707602, 109635000000
-0.041102758985384624, 0.47546979709676, 1.0037291694923338, 109640000000
0.014309807327142703, 0.43121736127305765, 0.9998238675227082, 109645000000
-0.18320011325671193, 0.47555538540254805, 0.9976902954949411, 109650000000
0.02414349842268674, 0.4436925302682144, 0.9952959839570568, 109655000000
-0.1344717871686301, 0.4959271887574884, 0.9937716769984961, 109660000000
-0.05249656048266056, 0.4891808104407331, 0.9922982625458057, 109665000000
0.07440195114616492, 0.42667495821408424, 0.9919472978648943, 109670000000
-0.15876662122046217, 0.47279467174767964, 0.9918828373395364, 109675000000
0.05413798096921927, 0.44050623391454474, 0.9921492586679832, 109680000000
1.2645893217195008, 0.5002498009621761, 0.9934331204926653, 109686000000
0.2831146569559456, 0.4791185616561097, 0.9950383830185036, 109692000000
-0.1699121728571834, 0.42037984858689403, 0.9969724459236861, 109697000000
-0.13298143055563633, 0.5028242304158052, 1.001345099114105, 109702000000
-0.25309170697736827, 0.39865003793015535, 1.0037816874383552, 109707000000
-0.3042544330042597, 0.5115779643112278, 1.0124476030767666, 109712000000
-0.1093022836161232, 0.467414419500957, 1.0205444426922248, 109717000000
0.17798576768912808, 0.5116358865357663, 1.0271781192499265, 109722000000
-0.12676791673502374, 0.468924632952608, 1.0335440355073569, 109727000000
-0.22099299544397916, 0.48885000581070315, 1.0411636954193322, 109732000000
-0.07138366960908792, 0.5239108207764096, 1.0472807753614384, 109737000000
-0.0798901801882185, 0.4968879434308598, 1.053999429226673, 109743000000
0.09792368519156755, 0.4368023458180011, 1.057212170053321, 109748000000
-0.05506443986533911, 0.4735265238595357, 1.0600461731430326, 109753000000
2.1007856987492346, 0.5242638961592033, 1.061281441421263, 109758000000
-0.06297200347431085, 0.5460008426775511, 1.0611622261254097, 109763000000
-0.02949176894145231, 0.55040208744618, 1.060749459570313, 109768000000
-0.030066809875150216, 0.527492448733497, 1.0590599703885173, 109773000000
-0.02878122445085803, 0.49699787046152444, 1.0568482936713754, 109778000000
0.006712183487102629, 0.5239037617582246, 1.0540318989271642, 109783000000
-0.07806446806604679, 0.555683919513164, 1.0512973268587997, 109788000000
-0.020354698904919467, 0.5091484261806504, 1.0483466555514434, 109793000000
-0.04592296840620901, 0.49883620079854013, 1.0447729491471174, 109799000000
-0.04698496722914323, 0.5308772391201405, 1.0418375688320138, 109804000000
-0.05549491881565048, 0.5003240353167961, 1.039325948656411, 109809000000
-0.09230283485087129, 0.5286152855061141, 1.0378236540057308, 109814000000
-0.056556948374784526, 0.5020368482966011, 1.0359631765671844, 109819000000
-0.054040627442982415, 0.5187570727809385, 1.035427061070061, 109824000000
-0.06338442457087556, 0.5175214046647582, 1.0355231871454749, 109829000000
-0.08306204748145357, 0.5253244392400835, 1.035715540438086, 109834000000
-0.04472860671685721, 0.5459742652580613, 1.0365807615313274, 109839000000
-0.05602564469558924, 0.5376394039906941, 1.038068842540835, 109844000000
-0.07818145549386701, 0.5257499652885455, 1.0394923884769545, 109849000000
-0.03326183719085367, 0.4818163855529601, 1.0417998277761953, 109854000000
2.06452926213272, 0.5442987443446067, 1.0436620752217223, 109859000000
-0.08711923678118352, 0.4969198571831477, 1.0456013018625991, 109864000000
-0.049107839287741185, 0.501587905157935, 1.048069071551995, 109869000000
-0.06983952167939536, 0.49200408303064413, 1.0501119001105192, 109874000000
-0.01717171691124934, 0.4983337922768175, 1.0520387602561192, 109879000000
-0.030935115216520804, 0.5439728804524847, 1.0535905205464262, 109884000000
-0.033499746288901455, 0.5108562555169985, 1.0550787309197611, 109889000000
-0.06769697297741126, 0.5113172531185396, 1.0548253567410606, 109896000000
0.019763376877685965, 0.5060400423136018, 1.05410886555404, 109901000000
-0.007879959165210875, 0.5070301253949909, 1.0542587435402322, 109906000000
-0.024544249439687256, 0.5304358009814857, 1.052324254750559, 109911000000
-0.016658349818210422, 0.5292899336737944, 1.0506061113886025, 109916000000
0.0032970329125083624, 0.5052057070471359, 1.0490105625221298, 109921000000
-0.022775534356741366, 0.5064802695356914, 1.046642514799775, 109926000000
-0.02918652251288916, 0.48122722558238, 1.0450182825244958, 109932000000
-0.060378101978547906, 0.4947981369239242, 1.043465900853373, 109937000000
-0.08995483957914069, 0.48005108293840243, 1.0418964598961455, 109942000000
-0.04053658184734455, 0.49804436234708327, 1.0416940003546482, 109947000000
-0.046958544327913826, 0.5398078328849577, 1.040762014590705, 109952000000
-0.08511217422788968, 0.5285914328039064, 1.0403354921152874, 109957000000
2.0426069855727143, 0.49600379959336044, 1.04063849145929, 109963000000
-0.10222479588207306, 0.5638748090707754, 1.0413932406527258, 109968000000
-0.07357964695530007, 0.5396564509880892, 1.04255616671708, 109973000000
-0.06325649893462408, 0.5127490660086089, 1.0441223698368072, 109978000000
-0.04938696138527072, 0.5267368071603146, 1.0458594841905353, 109983000000
-0.0335748289645027, 0.5513253653767668, 1.0472044607148185, 109988000000
-0.05955706768037583, 0.5219306096679938, 1.048905185822829, 109993000000
-0.03980490404501613, 0.5127921511521357, 1.0496135647233324, 109998000000
-0.042225753273533395, 0.53558226746631, 1.0500856445780715, 110003000000
-0.06019461406865098, 0.5039337594963607, 1.0504605489466479, 110008000000
-0.02853645164585237, 0.5131158161836438, 1.0506999929885992, 110013000000
-0.04206149035265424, 0.5325395374174923, 1.0502803551351234, 110018000000
-0.03384200920781275, 0.5706058792997721, 1.0493599774012758, 110023000000
2.096652997332214, 0.5139639472952003, 1.0486187159965126, 110028000000
-0.06931315219840131, 0.5456727485722765, 1.0478705067301812, 110033000000
-0.07842022134877147, 0.5367251861290987, 1.0468186690778616, 110038000000
-0.029120708434178758, 0.5373500970911761, 1.0465440240586361, 110043000000
-0.07427316625684868, 0.5422528072976868, 1.046230194756897, 110048000000
-0.08916264807703059, 0.5823296546732544, 1.0459887166835018, 110053000000
-0.07008729952078918, 0.5736082738270966, 1.0458829450415794, 110058000000
-0.05642976736782532, 0.6301891672138035, 1.045614259364248, 110063000000
-0.14631611365272065, 0.37856518993257915, 1.0452460140919775, 110068000000
-0.05781328442789201, 0.599508438333676, 1.044935319302163, 110073000000
-0.0521424008626478, 0.5775692569043562, 1.0445502447710004, 110078000000
0.02716945805347615, 0.6325251023719245, 1.043836444206295, 110083000000
-0.15751181317968233, 0.4020602250810762, 1.043600075370441, 110088000000
-0.0033186074887665952, 0.5707088191014753, 1.0438779240199667, 110093000000
-0.030114463390907037, 0.5614284654824023, 1.0436315017773254, 110098000000
-0.082362802768318, 0.521200248351015, 1.043062547703897, 110103000000
-0.021479681766799704, 0.5272603520699434, 1.0435091566253456, 110108000000
-4.3030777106496665e-05, 0.5782814544123109, 1.0433032709830334, 110113000000
-0.10078001846567333, 0.5243669249558904, 1.0431912682818194, 110118000000
-0.04234112295016145, 0.5935450435583751, 1.0435668532943467, 110123000000
1.745768650905502, 0.6316361278080926, 1.043811216031756, 110128000000
0.16434807360941447, 0.4383656681768335, 1.0448104819258017, 110133000000
-0.009483111555760189, 0.5872773783997498, 1.0453993794172132, 110138000000
0.0212384293924465, 0.6092871578574206, 1.0457316454747203, 110144000000
-0.15892177730688137, 0.4657181208539226, 1.0472786087233137, 110149000000
0.05182867111079642, 0.6577121800609399, 1.0484026905258137, 110155000000
0.040929036334252655, 0.48429349268967775, 1.047206846557365, 110160000000
-0.09228747972408852, 0.5755200369789065, 1.0459598776543628, 110166000000
0.16101212122813016, 0.6898969105174729, 1.0443445580069057, 110171000000
-0.2521454663449215, 0.460800217562681, 1.041899073366144, 110176000000
-0.0027331370888641106, 0.5624358383397504, 1.0404438463294696, 110181000000
0.11821011500451334, 0.6309100019673457, 1.0373049970018122, 110186000000
-0.2759858676002813, 0.44138259699841864, 1.0352057898581988, 110191000000
1.7985081851330675, 0.6230521664026963, 1.0336175451948262, 110197000000
-0.08422335253220888, 0.5024509144781322, 1.031087805308077, 110202000000
-0.01616427072040749, 0.5781210028152607, 1.0292008016827496, 110207000000
0.03380110751937812, 0.6742422582356189, 1.027512039242079, 110212000000
-0.1771489347460771, 0.4663405563332672, 1.0250997560681496, 110217000000
-0.004015437841110008, 0.5926122432269125, 1.0236325770691816, 110222000000
0.06935384587523818, 0.6239526180761356, 1.0210654558794314, 110227000000
-0.17421991579762902, 0.46574029475582973, 1.0192766669552988, 110232000000
-0.016804500011942967, 0.6430563275610979, 1.017520170658028, 110237000000
-0.05907703216211236, 0.5153097939973024, 1.0153924128333383, 110242000000
-0.1072185953690001, 0.5547302043006952, 1.014122030208434, 110247000000
0.044675091917455514, 0.6605827600002926, 1.0128764344462582, 110252000000
-0.09113167470770112, 0.4823033666558594, 1.0106938744674712, 110257000000
-0.024574902693941164, 0.5664890857834293, 1.0101711851387842, 110262000000
1.7832029367804398, 0.6249284903585777, 1.0084202578007513, 110267000000
-0.18607559832778797, 0.4579596841444568, 1.007435258301759, 110272000000
-0.04751542627752237, 0.5870543336370146, 1.006719997242407, 110278000000
0.06505132398752847, 0.6580226696334944, 1.0055256928539014, 110283000000
-0.14777473341228636, 0.4992264463712662, 1.0050464501461143, 110288000000
-0.04166974337165655, 0.5645326348148694, 1.004443497332889, 110293000000
0.03157028037606065, 0.6657254158814802, 1.003373379797155, 110298000000
-0.17496551092505802, 0.4804356852721658, 1.0027771188285997, 110303000000
-0.0832365462438294, 0.5889091770759661, 1.0017727807031045, 110308000000
0.04936467901726892, 0.6392964988696754, 1.000987414758542, 110313000000
-0.1305208290889033, 0.4455812714125789, 0.9998002262521326, 110318000000
-0.018569269556582297, 0.5820411198669447, 0.9999598104281369, 110323000000
0.08147203468751567, 0.6831424600009758, 0.9989441810963835, 110328000000
-0.15307203207389783, 0.45831225997667846, 0.9983259861009816, 110333000000
-0.03922438184341896, 0.5716037045253135, 0.9981919134940123, 110338000000
0.05746191754883749, 0.620600600061135, 0.9975184156111038, 110343000000
-0.15596696921247616, 0.4700847366693393, 0.9969661016083611, 110348000000
0.02080988954336513, 0.6121889534699984, 0.996510060146287, 110353000000
-0.038136802259392, 0.5369385626790317, 0.9959727594850527, 110358000000
-0.12130302271478102, 0.5019909265656873, 0.9959753648184559, 110363000000
2.1330509435182305, 0.6117152497233188, 0.9963237836649953, 110368000000
-0.06867644068327788, 0.5900388830214833, 0.9957589954969261, 110373000000
-0.08524543371971334, 0.4955268862065705, 0.9954381041278811, 110378000000
-0.08964657611699925, 0.6059018100144391, 0.9956933731349166, 110383000000
-0.00251405568370156, 0.6222626315940316, 0.9953845332493597, 110388000000
-0.02587056358870688, 0.45254026523239016, 0.9948494020879624, 110393000000
-0.14853757928850445, 0.560070687728168, 0.9954631601243192, 110398000000
-0.0008072297765292745, 0.6307229652400526, 0.9945602360211473, 110403000000
-0.20181244801806034, 0.48293617040597137, 0.9943883485864481, 110408000000
-0.05922375987082375, 0.6088748783304794, 0.9944523569674133, 110413000000
0.022802393169676433, 0.6329302525768602, 0.9943357479048145, 110418000000
-0.15055792329584855, 0.5091342049056501, 0.9944357205675857, 110423000000
-0.0558009856832859, 0.5775023222315118, 0.9945408223110501, 110428000000
0.05302496292445323, 0.6241913086550386, 0.9942095141573872, 110433000000
2.398401836558303, 0.4849626523466021, 0.9949332153761211, 110438000000
-0.04216165836795102, 0.5795803548747344, 0.9955845549446368, 110443000000
-0.06189228064400694, 0.5850269246777622, 0.9954621237248935, 110448000000
-0.10079269791340736, 0.5906248603850011, 0.9957293674410785, 110453000000
0.026603125372932152, 0.6570693682778318, 0.9955324918298281, 110459000000
-0.17313930098951205, 0.5175893059436282, 0.9955639702321951, 110464000000
-0.11434508294851256, 0.634258810896443, 0.9957355547802712, 110469000000
-0.05789222903020124, 0.5488108828135135, 0.9954148373438192, 110474000000
0.04213430963785253, 0.6151073785475124, 0.9951705957659179, 110479000000
-0.025963359018636695, 0.4980150054422185, 0.9946054402699046, 110484000000
-0.12592212112066564, 0.6195823216314035, 0.9940053621682106, 110489000000
-0.06839551575389707, 0.6031894849752031, 0.9937886546940048, 110494000000
0.03848953700775482, 0.65456432606518, 0.9935191933061746, 110499000000
1.9751510414345321, 0.5607784302226663, 0.9939898882210492, 110504000000
-0.07445608639271334, 0.6026376777289459, 0.9940080056608567, 110509000000
-0.027348764526366802, 0.6120007866145653, 0.9943832607777707, 110514000000
0.048614534532567005, 0.6715650057356457, 0.9944115469104666, 110519000000
-0.08281466443989355, 0.48614566420804084, 0.9940652308415339, 110524000000
-0.11801612416512015, 0.6264846036658452, 0.9941796178483038, 110529000000
-0.03195851858690359, 0.5861062196921354, 0.9940152541473288, 110534000000
-0.09084639632706107, 0.6013581086200078, 0.9942370310744448, 110539000000
-0.06675964632426681, 0.5765531700478611, 0.9937637106505752, 110545000000
-0.05962689132050624, 0.6101330073570601, 0.9934794761762017, 110550000000
-0.08442165074528041, 0.5626824158826704, 0.993563790281305, 110555000000
-0.0431748931025705, 0.59473978710112, 0.9936450064907397, 110560000000
-0.057322342733114415, 0.606340598566281, 0.9938321297023747, 110565000000
1.6600132238714105, 0.5967508116028116, 0.9939707871926928, 110570000000
0.3471497841788238, 0.594506357035072, 0.9940385489314023, 110575000000
-0.10323265330416866, 0.6462325791476338, 0.9946076856374259, 110580000000
-0.04546242029328015, 0.5863789922721687, 0.9951071703322842, 110585000000
-0.04983644001258125, 0.6246136234666394, 0.9950580414079238, 110590000000
-0.0700523728739433, 0.5904328005172124, 0.9953554441775466, 110596000000
-0.05043678913266423, 0.5698793580513286, 0.9953540725716441, 110601000000
-0.09952222747165801, 0.6082435772079126, 0.9950977769166245, 110606000000
-0.04793886560925322, 0.5938829428371923, 0.9949284180518057, 110611000000
-0.032853995663967614, 0.5881943855046549, 0.9946033399887432, 110616000000
-0.0673880479862752, 0.6066580063211219, 0.9942771348485866, 110621000000
-0.059709058260822, 0.5669490428159477, 0.9940695345602648, 110626000000
-0.0719559875315128, 0.6131021631631197, 0.9938592291788206, 110631000000
-0.025620560593254967, 0.560846649662944, 0.993836220310312, 110636000000
2.062622294011131, 0.5878987496996053, 0.994079824831003, 110641000000
-0.09674258382237325, 0.5997368287745788, 0.9941847487700869, 110646000000
-0.07725148242535172, 0.6533948782023618, 0.9941713866868307, 110651000000
-0.04953886329504185, 0.603878936158718, 0.9941497267919519, 110656000000
-0.05821665602335563, 0.6240063851833558, 0.99448585684089, 110661000000
-0.05415608240208553, 0.5814213193951673, 0.9943775598112023, 110666000000
-0.06812005014680253, 0.5817697830939133, 0.9938222218646339, 110671000000
-0.07193259559189324, 0.6325705027197605, 0.9934588375303526, 110676000000
-0.02909520167978851, 0.6370068198905245, 0.9931482178823444, 110681000000
-0.038197070136321135, 0.6273141559928349, 0.9935082151671878, 110686000000
-0.05461177505077496, 0.6184131974887834, 0.9930542951836472, 110691000000
-0.06387994844722936, 0.5888132723227495, 0.992174166979156, 110696000000
-0.02898183314296666, 0.6170286768047593, 0.9924355092094574, 110702000000
-0.0064980808772395066, 0.6010305844707796, 0.9923016781442002, 110707000000
-0.055931684826827074, 0.5959982020136539, 0.992088250421297, 110713000000
-0.02824243190942668, 0.6045397712211322, 0.9915784412754765, 110718000000
-0.027960920711043228, 0.5983970638205759, 0.9917857920210595, 110723000000
-0.06888995790853378, 0.6167429509600244, 0.9915087461189842, 110728000000
-0.03822201453030942, 0.6084195740056211, 0.9914926922758551, 110733000000
-0.016296916455682136, 0.5959021409518046, 0.9915838339368314, 110738000000
2.0678207611056223, 0.5867695085314086, 0.9913937834759371, 110743000000
-0.05536033382734541, 0.6306877690143989, 0.9920787577637282, 110748000000
-0.07089173462214915, 0.6167364747200549, 0.9921706068679228, 110753000000
-0.04981001353009394, 0.6205594600825287, 0.9919521646958073, 110759000000
-0.05612456482058457, 0.6206963482274422, 0.9920598839716691, 110764000000
-0.06942705574795915, 0.5949252483563924, 0.9921880612280708, 110769000000
-0.04800911956398824, 0.6191498048273829, 0.9922336164557092, 110774000000
-0.04940202320837035, 0.6253790054383096, 0.9918042437216136, 110779000000
-0.0440044625003367, 0.6293875909007495, 0.9913076585028758, 110785000000
-0.04314388026411, 0.6013016814757433, 0.9910345688386741, 110790000000
-0.02219357383030526, 0.6028764735063694, 0.991049166654427, 110795000000
-0.040542733777330045, 0.6102044683978275, 0.9908618249005022, 110800000000
-0.06168451937251346, 0.6129387940143911, 0.9906742610586733, 110805000000
2.093020895784254, 0.559261079867828, 0.9904523160487577, 110810000000
-0.21576691416667437, 0.6122863329067707, 0.9918995488980186, 110815000000
-0.33268333029534364, 0.7496855640907777, 0.9960818060852566, 110820000000
-0.00035418940020199, 0.6258797232160728, 1.0021310833445558, 110825000000
0.09851669194470529, 0.5801917506463558, 1.0085167152440584, 110830000000
-0.08611923110507107, 0.7008160209219486, 1.0146098694527899, 110835000000
-0.11361140227190761, 0.6483827931466738, 1.02214353020447, 110840000000
-0.27530972510829804, 0.6110816717536306, 1.0266842883217342, 110845000000
-0.14470418577291858, 0.6270023304919029, 1.0333431017576677, 110850000000
-0.1190612875485136, 0.6550032251348393, 1.0384386692784422, 110855000000
-0.09506997386345653, 0.6747447734427259, 1.0451151595461619, 110860000000
-0.03915880787709822, 0.667195866414274, 1.0492351595222056, 110865000000
-0.0028052612271587743, 0.6534579457997173, 1.0535092810991442, 110870000000
-0.015774071535738628, 0.6737733483494664, 1.0573190819104086, 110875000000
0.025575213486917242, 0.6492872937881377, 1.059525561713883, 110880000000
0.003169483639648484, 0.6696495390347261, 1.0614996191242552, 110885000000
0.011206771811242206, 0.652257995994062, 1.0618043901377883, 110890000000
0.010601962155222642, 0.6577807360287513, 1.0604824063473421, 110895000000
0.02967988534003583, 0.6547326263565962, 1.058509658397681, 110900000000
0.017720663950347475, 0.635037397838383, 1.0560025355596458, 110906000000
1.7089486811396906, 0.6380536193157917, 1.0527147272975048, 110911000000
-0.03123704637268587, 0.6508347433358681, 1.0496752705065355, 110916000000
-0.058958716875921996, 0.6621058085301852, 1.0468704815262202, 110921000000
-0.07879147454736485, 0.6870850213542291, 1.0446719628134602, 110926000000
-0.045701181083040776, 0.6970225569275447, 1.0415562963193308, 110931000000
-0.10208205960745026, 0.6056687060159295, 1.039036910301057, 110936000000
-0.014707188899035245, 0.6847915725247166, 1.0375880085571512, 110941000000
-0.007586436243101865, 0.6938265004979817, 1.0355089580054941, 110946000000
-0.05036592252227651, 0.6440513300239719, 1.0338756669818674, 110951000000
-0.11187344428763742, 0.6792745824083639, 1.032387752579684, 110956000000
-0.0629081211814548, 0.6399496587907781, 1.0312369123292646, 110961000000
0.016375905254855917, 0.6000755248950572, 1.0308945352906245, 110966000000
-0.15842094138411023, 0.6595197540136293, 1.029634901121917, 110971000000
-0.08039688734350643, 0.7052931078901618, 1.0290162085574894, 110976000000
2.2394557604286627, 0.6466617914939126, 1.029221654910778, 110981000000
-0.18913745205863403, 0.6242663144723837, 1.0296385094334684, 110986000000
-0.1584779058673027, 0.7253843655512431, 1.029961502677306, 110991000000
0.12766466191436843, 0.6059617309498189, 1.0313581672519267, 110996000000
-0.17280489137468072, 0.6326519120562235, 1.031308540319013, 111001000000
-0.04657481198710055, 0.7108449562973157, 1.0329637405272052, 111006000000
0.010713943744685091, 0.5413006312158964, 1.0338472781981178, 111011000000
-0.08820542676770159, 0.6554812537353502, 1.0337433589887506, 111016000000
-0.13537158479510344, 0.7390246011796222, 1.0332939687263518, 111021000000
-0.003189578581927019, 0.6877250421047463, 1.0335887451675634, 111026000000
0.10416821326904473, 0.6081988158947133, 1.0328988243331416, 111031000000
-0.2125637410911321, 0.7416780057991846, 1.0321849820724145, 111036000000
0.009151974297295074, 0.6562026136158943, 1.031823722576699, 111041000000
1.5890817551277914, 0.6454149382356578, 1.0302283170025828, 111046000000
0.3958193738238457, 0.7055881208931353, 1.0303595271668453, 111051000000
-0.1191231812641867, 0.6006793781601856, 1.0301226886565273, 111056000000
-0.16047733429983288, 0.7117792301011326, 1.0304450848342097, 111061000000
0.0026285779247946298, 0.7071383011580247, 1.0313542999750793, 111066000000
-0.05611814832230276, 0.6207316470907567, 1.0315392845865405, 111071000000
-0.051079004744654294, 0.7235940738334484, 1.0328622156882357, 111076000000
-0.09360315158822126, 0.6103584736934808, 1.0342543468672183, 111081000000
-0.09542271970264482, 0.7148097116352367, 1.0337804688286745, 111086000000
-0.008469473633003176, 0.7271590506934122, 1.0340569741152712, 111091000000
-0.051473599693274814, 0.6573510413293052, 1.0347649508699213, 111096000000
-0.07885526583194147, 0.6973659519543906, 1.0344704615163307, 111101000000
-0.052379989343580236, 0.6948723036896512, 1.0345234818243598, 111106000000
-0.053392791576218665, 0.6757019407696556, 1.0340933455017598, 111111000000
0.03355683104437785, 0.6793170984164338, 1.0338647190568544, 111116000000
-0.05823871679064249, 0.666884773479387, 1.0337706108624776, 111121000000
-0.03555625178679851, 0.7016223279163984, 1.0330465234253763, 111126000000
-0.03391009090567118, 0.6578069092628311, 1.0329834761648493, 111131000000
-0.06249459404246499, 0.6671713025058791, 1.031981302207051, 111136000000
-0.008786570734317132, 0.7368255237520073, 1.0313720012648324, 111143000000
1.2059944883217593, 0.6683724018066594, 1.0312738296942479, 111148000000
-0.10996605437905121, 0.7490874605014951, 1.030840045387569, 111153000000
-0.06728896807333973, 0.7111106141215773, 1.0322604196510754, 111158000000
-0.014060908508842384, 0.672730324337623, 1.031939839663727, 111163000000
-0.1777454133599349, 0.7217159335549276, 1.032918215390874, 111168000000
-0.013157199451969567, 0.6645013076494949, 1.0343329341261174, 111173000000
0.019462381022999718, 0.6735781282931049, 1.0345543876921837, 111178000000
-0.10896727912499324, 0.6851965672807149, 1.0354489929540394, 111183000000
-0.10927392009998653, 0.7036207695282041, 1.036827018429592, 111188000000
-0.03728080735386645, 0.672855089324279, 1.036526665414542, 111193000000
0.002399195525738043, 0.7034774864987624, 1.036718987610773, 111198000000
-0.03370668619816534, 0.6697365381321919, 1.0371839674608028, 111203000000
-0.1224851637552403, 0.7271033661836723, 1.0369561602949802, 111208000000
0.005576926527899304, 0.7031697716721417, 1.0362897779465636, 111213000000
1.9464959866822658, 0.6434301236277468, 1.036773118125459, 111218000000
-0.1236854994667142, 0.7390507300014375, 1.0371291919575405, 111223000000
0.009457366732429301, 0.6629493127747299, 1.0384765007805763, 111228000000
-0.05617686965002849, 0.6163080684854038, 1.0393468303054874, 111233000000
-0.07813542387750277, 0.7493788666628521, 1.040202899459863, 111238000000
0.03860333117413092, 0.6850100304160813, 1.041504389795486, 111243000000
-0.025507669505324813, 0.6262599675160051, 1.0413069353632798, 111248000000
-0.1833022691878171, 0.7622320466615423, 1.0407429675351312, 111253000000
0.04008927615253614, 0.664959397106543, 1.0411677014642533, 111258000000
-0.03977423316836545, 0.719614493220306, 1.0403636153546274, 111263000000
-0.14368826380191144, 0.7151678094849785, 1.0390535171834805, 111268000000
0.05207896636654866, 0.6801527193548512, 1.0377837464423896, 111273000000
0.03927100416570981, 0.6791176108969942, 1.0349090702081851, 111278000000
-0.19397761239203823, 0.6781443773465906, 1.032081237270804, 111283000000
-0.01291426180707286, 0.6958942209572271, 1.0277905876429696, 111288000000
-0.03157231558999052, 0.7279465727947875, 1.025020474710551, 111293000000
-0.014683606469963514, 0.6835774776936545, 1.0216241552519234, 111298000000
-0.030356898056474988, 0.6876287506431591, 1.0183392481305198, 111303000000
-0.06846273478032194, 0.6994297668698007, 1.0151532796778882, 111308000000
-0.0528840369973544, 0.7041694413698177, 1.013840141159801, 111313000000
1.3906143709967875, 0.6700212950651973, 1.0103773622380825, 111318000000
0.3858060198050521, 0.6802506480330915, 1.0091327120368843, 111323000000
-0.07308361806673128, 0.7041969522023871, 1.0070183860361928, 111329000000
-0.061458010798917065, 0.6891970347571541, 1.0052492236118493, 111334000000
-0.0625342636643074, 0.6725385632009373, 1.00411535705893, 111339000000
-0.04991794931463205, 0.7015258741544137, 1.0027906737905092, 111344000000
-0.031686555320285095, 0.7019310152613868, 1.0009805651477413, 111349000000
-0.10399229359684338, 0.705073327642188, 0.9997285782030687, 111354000000
-0.07337215436358549, 0.6944265673861343, 0.9985435116330106, 111359000000
-0.049265935856629875, 0.6795697227003751, 0.997656531759321, 111364000000
-0.02792831437889637, 0.6516283257924331, 0.9959932770576857, 111369000000
-0.049814850754426494, 0.6771534438797676, 0.9953995282747642, 111374000000
-0.038648961225657245, 0.7139630440306319, 0.9942041066216891, 111379000000
-0.0611163714999298, 0.6866555117700636, 0.9933843643684038, 111385000000
1.7237833078892215, 0.700718971452362, 0.992516309895032, 111390000000
-0.06483041399459703, 0.7066533362793624, 0.9922364431522455, 111395000000
-0.05705367527754395, 0.6967556230388372, 0.9917234839883665, 111400000000
-0.025163794352705642, 0.7081352579757695, 0.9913550172400948, 111405000000
-0.047703993964861614, 0.7256287085442557, 0.9909267648473868, 111410000000
-0.04646369781887257, 0.678215684398286, 0.9903681873698855, 111415000000
-0.08876742102792534, 0.6834365123486206, 0.9902070006862835, 111420000000
-0.07822319859594899, 0.7234097628411624, 0.9893695777185211, 111425000000
-0.025109731004191616, 0.6929001533851659, 0.9886259877588207, 111430000000
-0.02494197093201589, 0.7221762663962489, 0.9880667248629603, 111435000000
-0.026251321372925157, 0.7034998257637176, 0.9875654569050267, 111440000000
-0.06857283912737108, 0.6860244438014292, 0.9873195557726994, 111445000000
-0.0683157320565171, 0.6920203677663175, 0.9867132809526888, 111450000000
2.0412663200191346, 0.6829463142778603, 0.9865859096208829, 111455000000
-0.019273610355356987, 0.6975748126941539, 0.9860428727904779, 111460000000
-0.06548553239537296, 0.7084817530508831, 0.9857252443259362, 111466000000
-0.052771573007571126, 0.718080947800644, 0.9860787021884208, 111471000000
-0.057815398396253485, 0.7278811770452465, 0.9865017967503332, 111477000000
-0.03127166263012984, 0.7134510181433096, 0.9860044593159778, 111482000000
-0.03490301020262081, 0.6989671357588981, 0.9860668124852848, 111487000000
-0.0776125734817903, 0.674427627127494, 0.9850268173596781, 111492000000
-0.0598582779716913, 0.7063598345984226, 0.9846625932142342, 111497000000
-0.04152664830676331, 0.694673675762043, 0.9846229954797762, 111502000000
-0.04426300141255159, 0.7196887103913574, 0.9840310255191907, 111508000000
-0.05041437670525193, 0.717219027306402, 0.9839689245610498, 111513000000
-0.025929483785668977, 0.6796866459657753, 0.9833276134932514, 111518000000
2.0290085845258576, 0.680913801435585, 0.9831804332268828, 111523000000
-0.0194132253334054, 0.7088754266050625, 0.9838417329443857, 111528000000
-0.07471805265327869, 0.7320485551988432, 0.9834370984266788, 111533000000
-0.0762038615409816, 0.6763040856570541, 0.9831344845758115, 111538000000
-0.05680216688406666, 0.7009562704047206, 0.9831225136485577, 111544000000
-0.06920257438266841, 0.7289183643628311, 0.9826613101328767, 111549000000
-0.052112151928569536, 0.7277810075703618, 0.9830748862925657, 111554000000
-0.12015063603125073, 0.7449556976932273, 0.9825758643010036, 111559000000
-0.03380163450104946, 0.7352133644862934, 0.9823155081544291, 111564000000
-0.036639712907454484, 0.7115112856754708, 0.9818623120762886, 111569000000
-0.04707473855532095, 0.7286153937699477, 0.9816781881281209, 111574000000
-0.03476024045531902, 0.6596983875557897, 0.9815737453608042, 111579000000
-0.0451672561279669, 0.6794653790396422, 0.9816100331193965, 111584000000
-0.06591534562292561, 0.6836008239852156, 0.9815374491688917, 111589000000
1.7519606619290395, 0.7110803907571683, 0.9822426401350077, 111594000000
-0.07462548987540056, 0.6824835668248584, 0.9829352913509669, 111599000000
-0.057030798419111094, 0.6835007822586688, 0.9838820750868476, 111604000000
-0.06262651245964901, 0.6847657115461289, 0.9844441167234291, 111609000000
-0.07348662213439382, 0.7164774260793196, 0.9855389240004475, 111614000000
-0.01515867452029214, 0.6886004866603763, 0.9862659511819877, 111619000000
-0.11740057517993821, 0.7301187204706346, 0.9870547722155453, 111624000000
-0.03505780615899559, 0.6753436134902978, 0.9882830527389549, 111629000000
-0.058818953339593, 0.6939176076532962, 0.9885010180025172, 111634000000
-0.05012160649804626, 0.784188149725114, 0.9893554484905238, 111639000000
-0.04935778443168862, 0.7526376725511738, 0.9898309194279512, 111644000000
-0.044474033849049396, 0.771330036791221, 0.9900103513742066, 111649000000
-0.06875172566903531, 0.6793697090820439, 0.9906871651246814, 111655000000
1.5104090720855732, 0.7219154689207455, 0.9920275795326772, 111661000000
-0.10057434886497132, 0.7157549062463441, 0.9928991092175353, 111666000000
-0.09531103104194842, 0.7715721258179636, 0.9935591098604778, 111671000000
0.021451018600779782, 0.7683000954086662, 0.9940697217310405, 111676000000
-0.13652918176784992, 0.7369184330504508, 0.9968950519162282, 111681000000
-0.10495313740691774, 0.7043925036025288, 1.0004045736212388, 111686000000
0.17088025574086493, 0.7311950250552752, 1.0037986901536886, 111691000000
-0.2944481171732117, 0.7597519471510938, 1.0057635663739666, 111696000000
-0.11761633311588937, 0.7343448595082609, 1.0094222391856762, 111701000000
-0.1426458940159087, 0.7212198151432271, 1.0126332836206047, 111706000000
-0.07638198547765306, 0.7427397811031818, 1.0158124804718238, 111712000000
-0.05287680973737777, 0.7583899753687032, 1.0201752541140137, 111717000000
-0.21854922211686628, 0.7403289563084268, 1.0235569523329031, 111722000000
1.9386645113284586, 0.7692950106909632, 1.0267905361166472, 111727000000
0.219957265084262, 0.7965150182083199, 1.029498730049357, 111732000000
-0.09483232878132912, 0.7557455102998656, 1.032306842271357, 111737000000
-0.04087749241971349, 0.7566650332107191, 1.0344278999741643, 111742000000
-0.2760935929935405, 0.7743759636847755, 1.0355086439759935, 111747000000
-0.08008827652815748, 0.8566352217698514, 1.037271716631611, 111752000000
0.031004272432176794, 0.720148802140764, 1.0395253982233472, 111758000000
-0.1923368907846666, 0.7867054223248378, 1.0407075058677138, 111763000000
0.01334173845390571, 0.8829385329032287, 1.0407536000880906, 111768000000
0.08444576277640017, 0.6893233943752951, 1.0402465381985837, 111773000000
-0.14510576184962856, 0.784629423075081, 1.0395758036699931, 111778000000
-0.05395287310604042, 0.8122398721782428, 1.038525452213021, 111783000000
-0.13072676751526813, 0.6906365381342834, 1.0367995706878947, 111788000000
-0.025479879896230018, 0.7617494808224772, 1.0355781783816316, 111793000000
-0.04874943886593749, 0.8419448817406407, 1.0345902086780954, 111798000000
-0.030816198515999836, 0.6940415752299675, 1.0325822319549034, 111803000000
0.054460282567698144, 0.8650706182267064, 1.0317139362337944, 111808000000
-0.04676864905243817, 0.7437710852225463, 1.0308022625422482, 111813000000
-0.15995239606345626, 0.6854314219086259, 1.0299802209834727, 111818000000
-0.04532045561338917, 0.823366919183378, 1.0291767491475343, 111824000000
2.0032086529775763, 0.665637334989219, 1.0293783179897202, 111829000000
-0.06734613796078438, 0.8745626389719319, 1.0298843034263454, 111834000000
-0.06479195921160966, 0.7943756390518895, 1.0305368189769746, 111839000000
-0.07060950213972048, 0.6799664815520876, 1.0319497710100276, 111846000000
-0.103372709499175, 0.8461727821378396, 1.0340326459160791, 111851000000
0.07896959576314294, 0.6760206818647553, 1.0358878146185848, 111856000000
-0.1520786052200948, 0.8727770353298707, 1.0380436848558376, 111862000000
-0.04566359126089678, 0.7821464585628113, 1.039193650242498, 111867000000
0.12023904748925565, 0.6830606728969455, 1.038576038273008, 111872000000
-0.07479995995804078, 0.8910222488799813, 1.0379885224464243, 111877000000
-0.15057275564134925, 0.7926925894101957, 1.0377382498851628, 111882000000
-0.04911055001214846, 0.7198847434181082, 1.036837320234426, 111887000000
-0.02824207881357766, 0.8842254824960448, 1.0363934410850673, 111892000000
-0.08555529606345098, 0.8108336611857214, 1.035801999252208, 111897000000
1.463189579655551, 0.7280703966291753, 1.0353780160823165, 111902000000
-0.09183106072926918, 0.9040091039691447, 1.0349065205571735, 111907000000
-0.009908682629401441, 0.7476336044833132, 1.03478218660641, 111912000000
-0.15098289366028556, 0.7290543706103269, 1.0344471162978028, 111917000000
0.21702686600654764, 0.8252192159907803, 1.0334052552583894, 111922000000
-0.16983058566685166, 0.8071377489583174, 1.032233316050967, 111928000000
-0.17037919460940307, 0.7423859606917156, 1.0293368411507533, 111933000000
0.08089100376094589, 0.8567249896502919, 1.026382782606399, 111938000000
-0.18919440307589266, 0.7184334016988, 1.0235592231469075, 111943000000
-0.021539201304535682, 0.8130167215141558, 1.0214464385568425, 111948000000
0.05480691187638281, 0.8140823369762363, 1.0188796392455122, 111953000000
-0.24634308649359132, 0.7272209281953318, 1.0170628051383235, 111958000000
0.03852234059468715, 0.7921716387062065, 1.0151110251686715, 111963000000
1.3829839574140528, 0.825623186502361, 1.012747015831369, 111969000000
-0.14861503870805748, 0.76877492714364, 1.011294117898736, 111975000000
-0.0035219132508124903, 0.8852010503802316, 1.010531118530949, 111980000000
-0.04787766710337375, 0.7627070028832489, 1.0088919316664178, 111985000000
-0.12360705856135343, 0.7441241297294136, 1.0079468155858726, 111990000000
0.06564802082957866, 0.8512268698329025, 1.0074920720863856, 111995000000
-0.1235018758272382, 0.7789789929987184, 1.006068566297951, 112000000000
-0.20692422117032822, 0.7159632305676347, 1.0053902300588622, 112005000000
-0.041149868972194095, 0.8611341890107406, 1.0042582165214244, 112010000000
0.056291385147440115, 0.8285707687005429, 1.0029295972192154, 112015000000
-0.15046749348938007, 0.7210447309738308, 1.0019073118804382, 112020000000
-0.0218515248129188, 0.7953327321929137, 1.0012861940340474, 112026000000
0.10760058242291035, 0.8635448655814214, 1.0005485257985403, 112030000000
-0.05760193493650225, 0.7466493898054621, 0.9988572819571062, 112035000000
-0.05056066976787202, 0.8940003475354817, 0.9984997860777576, 112040000000
-0.06185083043796651, 0.8152819009641717, 0.9975157020877907, 112045000000
-0.07572388301135588, 0.6780194504272076, 0.9964070791807249, 112050000000
-0.0216036655078594, 0.8551786796714891, 0.9959629250349031, 112055000000
-0.02241598493387185, 0.6938679311878723, 0.9945942839260288, 112060000000
-0.1455251408980792, 0.8264446467992332, 0.9940567360020474, 112065000000
2.1595536352046065, 0.8783969589962997, 0.9945724987781951, 112070000000
-0.0724441167257788, 0.8597535707728815, 0.9946458050039124, 112075000000
-0.12424896426095344, 0.7099932943337053, 0.9945836761362746, 112080000000
-0.0027019879959351806, 0.8488172478005203, 0.9947751162849261, 112086000000
-0.12819605424538127, 0.7463155210182248, 0.9940655278846221, 112091000000
-0.04414963324220171, 0.8094662438630725, 0.9952154593394568, 112096000000
-0.14111776844566362, 0.800480397625257, 0.9953744285273484, 112101000000
0.0773252329491498, 0.8332997697335406, 0.9946053586474014, 112108000000
-0.08288735796768523, 0.7440269928923461, 0.9938479539956577, 112113000000
-0.03618483151938653, 0.8419735130173536, 0.9938277948534171, 112118000000
0.038002598243002464, 0.8230704209889091, 0.9939318109732322, 112123000000
-0.04548618220083733, 0.7412681693710762, 0.9927627039166623, 112128000000
-0.08293179264350045, 0.8091597180598307, 0.992659101579115, 112133000000
1.3226668798245504, 0.8421201671154941, 0.9931347622652807, 112141000000
-0.0820491801734016, 0.7704175123531816, 0.994165127643413, 112146000000
-0.09199192093007619, 0.8367595662614469, 0.9939109825727972, 112151000000
-0.05214702489217543, 0.8065119766575843, 0.994276770662206, 112157000000
0.037897896808939284, 0.8294068783878195, 0.9945844417922798, 112162000000
-0.16745345428274624, 0.8433744848709719, 0.9946088811045061, 112167000000
-0.14648674030107967, 0.838214456942243, 0.9944166299815356, 112172000000
0.06632971346533306, 0.852731643474583, 0.9940322325335682, 112177000000
-0.026279489107625172, 0.7380391201291755, 0.9936130167756166, 112182000000
-0.09040619012496941, 0.8827738906966031, 0.9934382424445581, 112187000000
-0.027586008882072802, 0.8278906614877493, 0.9930645164442091, 112195000000
-0.02746455161306753, 0.8243247587252388, 0.9927237387850287, 112200000000
1.7512184049772397, 0.7886071946669989, 0.9932335459600107, 112205000000
-0.08297629447635471, 0.8038818159562631, 0.9936040827868611, 112210000000
-0.06141406552508296, 0.8296355968277245, 0.9943511684087393, 112215000000
-0.06043659646372139, 0.8304519386434134, 0.9945583290092839, 112220000000
-0.05450295396325064, 0.8030020301168964, 0.994624447751717, 112225000000
0.08966222853636335, 0.8121306679827317, 0.9946673014873352, 112230000000
-0.13093458790452583, 0.8314717085955492, 0.9940725771630781, 112235000000
-0.1378029848753285, 0.8294934246850987, 0.9939864713915144, 112240000000
-0.0490433008868687, 0.8213014861099492, 0.9937626124729653, 112245000000
-0.024092035175322716, 0.8150628208726168, 0.9936320751033998, 112250000000
-0.02947117609449453, 0.8367438642446415, 0.9933986036248794, 112255000000
-0.00787330749066788, 0.8246501407530215, 0.9935293502937416, 112260000000
-0.023904804511168536, 0.8053000019741705, 0.9933724942834586, 112265000000
1.709946435587426, 0.803041325970156, 0.9930743165516365, 112270000000
0.396582115817029, 0.8342061654760062, 0.994011600133052, 112275000000
-0.08125559814482042, 0.8434903440862987, 0.9944622750165105, 112280000000
-0.03706967843099965, 0.8687567803404299, 0.9955153568914201, 112285000000
-0.044321980984893164, 0.8306996552056353, 0.9954923865798895, 112290000000
-0.018431850957783005, 0.8385189623943547, 0.9957077841629925, 112295000000
-0.03442259860959561, 0.8297356828740272, 0.9959866655430126, 112300000000
-0.11035685506172178, 0.8172972259445713, 0.9958665197064644, 112305000000
-0.06151334376965086, 0.8193859402012438, 0.9956136174064, 112310000000
-0.019102227138334447, 0.8367759647190759, 0.9957003143565197, 112315000000
-0.03305447283280395, 0.8092985071229047, 0.9952871434937396, 112320000000
-0.03125375016953508, 0.8358822128186789, 0.9949004473256674, 112325000000
-0.009761543852819805, 0.8484188088275246, 0.9946321197696015, 112330000000
-0.023071314744243017, 0.8260512723701694, 0.994413072967414, 112336000000
-0.041657856014167105, 0.8169181610572097, 0.9940397936037241, 112341000000
-0.012085695999040177, 0.8582785504704813, 0.9937484867699672, 112346000000
-0.02752621314493356, 0.844718419062205, 0.9934336640563936, 112351000000
0.005786576417947095, 0.8286980392770503, 0.9932685027302867, 112356000000
0.026595679085430583, 0.8659825503796444, 0.9927082832812202, 112362000000
-0.03169147108832339, 0.8453878557742527, 0.9920527543680269, 112367000000
1.4158275160723766, 0.8392459763526359, 0.9922202489913649, 112372000000
0.39845267306079685, 0.8714699629050836, 0.992962147289943, 112377000000
-0.06172909782471815, 0.8654501016187733, 0.9932729931594121, 112382000000
-0.035274755787128624, 0.8494451847269485, 0.9934909148021946, 112387000000
-0.051261802898470404, 0.8625729914214949, 0.994005962246514, 112392000000
-0.010858215242909232, 0.8321628711547587, 0.9943600084818529, 112397000000
-0.03843561881333546, 0.8284034549431935, 0.9941883514544403, 112405000000
-0.07362114283755977, 0.8531260784428458, 0.9943017800873514, 112410000000
-0.032814507832820555, 0.8413502494591538, 0.9940961397040639, 112415000000
-0.01700534322070583, 0.839646048451078, 0.9935606961404476, 112420000000
-0.00925694574873685, 0.853809404519454, 0.9934283989058839, 112428000000
-0.021262474255951767, 0.8483990952993947, 0.993587531343146, 112433000000
-0.055707898042708426, 0.8472091283921058, 0.9929068980621878, 112438000000
2.140067363478491, 0.8454327518377904, 0.993508902431036, 112443000000
-0.03916236455923651, 0.847106990036799, 0.9937895276797983, 112448000000
-0.04179597036067876, 0.89916601171677, 0.994055150865271, 112453000000
-0.030520476715094225, 0.8737848849537871, 0.9941353744944741, 112458000000
0.01256067766744701, 0.8648791553675249, 0.9943462736653674, 112463000000
0.026166831154127275, 0.8818267242391946, 0.9943139443985727, 112469000000
-0.03721709458460021, 0.8574950134846011, 0.9945154656893472, 112474000000
-0.0733043520946668, 0.8559769283723366, 0.9938255155726259, 112479000000
0.004108530664599052, 0.886056791829773, 0.993680239469268, 112484000000
-0.013524942921280465, 0.8206385210118385, 0.9929596066900269, 112489000000
-0.04514678545888942, 0.8685876429793853, 0.9933399793401552, 112494000000
0.0006326014999047704, 0.8768533464398897, 0.9926920392449597, 112499000000
0.013936685789338706, 0.874687574235066, 0.9922845564581547, 112504000000
2.174389014907126, 0.8541188007383529, 0.9915560878870024, 112509000000
0.3407607176396697, 0.867893785639476, 0.9926887947795795, 112514000000
-0.05035834773538113, 0.8878855641783864, 0.9926470992374072, 112519000000
-0.0171252447001746, 0.853607345224902, 0.9933874375207228, 112524000000
-0.025644163233130696, 0.8778615989630371, 0.9932165624382614, 112529000000
-0.0446130199935824, 0.8817474779111513, 0.9934335265557839, 112534000000
-0.0047351353803392685, 0.8569553967409235, 0.9936441985396187, 112540000000
-0.11049765759927875, 0.8979130183908621, 0.9936069530742057, 112545000000
-0.0456344563398429, 0.8900054590539066, 0.993131894007666, 112550000000
0.011774809890258642, 0.8773865227472929, 0.992340818974854, 112555000000
-0.0014179302743303583, 0.8399460668406584, 0.9923540927242134, 112560000000
-0.0006355358803061869, 0.8840055347312678, 0.9922093334222425, 112566000000
-0.025718359584455612, 0.8735869010141193, 0.9918245713229731, 112572000000
-0.04934168279189256, 0.8500089817094416, 0.9916343359278715, 112577000000
1.526111159643649, 0.8618827864827282, 0.9919258093862147, 112582000000
-0.024985049827318258, 0.8872958929481021, 0.9923199015062452, 112587000000
-0.001957573999788225, 0.8605661847785347, 0.9923763733652343, 112592000000
-0.023850827158612073, 0.8841806935736157, 0.9927404345956785, 112597000000
-0.026816697347719166, 0.9021991102833448, 0.9928767281059655, 112603000000
0.008500986480138127, 0.8936534906762563, 0.9932377944757762, 112608000000
-0.0792704518674722, 0.8671907652851761, 0.9927627516802077, 112613000000
-0.011661157969828605, 0.8834289714268102, 0.9924605770774935, 112618000000
-2.907845344487202e-05, 0.9029595952315916, 0.991657556659105, 112623000000
-0.009258431223441398, 0.9166348802549885, 0.9915290227733943, 112628000000
-0.019407994824380933, 0.8960954613165951, 0.9910254644555118, 112633000000
-0.017006021424656126, 0.8539172771220418, 0.9905427262033322, 112638000000
-0.017374187362498617, 0.879296814336388, 0.990403312073858, 112643000000
2.1585772014577485, 0.8966039146173692, 0.9908404947004288, 112648000000
-0.029499082869527966, 0.9202664479116618, 0.9916023818954478, 112656000000
-0.02390083389527449, 0.9131475055993361, 0.9920426996166869, 112661000000
0.003093581296138438, 0.8611216089978248, 0.9918251258727141, 112667000000
-0.01811879102684686, 0.9172198482609584, 0.992308149727534, 112672000000
0.00607437811605285, 0.886495318098849, 0.9917302845408293, 112677000000
-0.07362517472688429, 0.9034150810664453, 0.9919268099206302, 112683000000
-0.03595726893675101, 0.883546644008687, 0.9911834803437857, 112688000000
-0.02436269059998805, 0.9047328990768668, 0.9904919287327986, 112693000000
-0.01774373460042589, 0.9037002149778487, 0.9907742859567609, 112698000000
0.002109923093914272, 0.8993668656775589, 0.990312271270909, 112703000000
-0.0009394931342400215, 0.898027536336581, 0.9898701614758668, 112708000000
2.0972727828415354, 0.8875930609831816, 0.9897644153909806, 112713000000
0.027801255832939013, 0.9313516806919465, 0.9899114807655892, 112718000000
-0.03502285383202932, 0.8880509709510875, 0.9904742094607664, 112723000000
-0.0011316744640492322, 0.928255731214813, 0.9911550037911903, 112728000000
-0.055003637598482175, 0.8869126760107262, 0.991034167772278, 112733000000
-0.016877794129315074, 0.9261557654033034, 0.9911058590186332, 112739000000
-0.010192371761579645, 0.9130841272465358, 0.9914593016758605, 112744000000
-0.12155002629103932, 0.9054959482869592, 0.9912926045674442, 112749000000
0.0986152318027966, 0.898985849413203, 0.9909175202218802, 112754000000
-0.06574985659026832, 0.8259048856779163, 0.99008473226516, 112759000000
-0.021048925316082455, 1.0145046491016247, 0.9895689946401581, 112765000000
0.007861796678043787, 0.9043452924120502, 0.9893629398635265, 112770000000
0.09041843252606646, 0.8865346315353998, 0.9890614660727923, 112775000000
-0.06702247458981808, 0.996618436231853, 0.9887387061531961, 112780000000
-0.05355332930484386, 0.8498603263165992, 0.9884983724316163, 112785000000
0.00882794310257174, 0.9027884668491349, 0.9874211764493237, 112791000000
0.14838964128058227, 0.8614871543178609, 0.9877697323660757, 112796000000
-0.037898989798913964, 0.9878826251899929, 0.9872382478969777, 112801000000
0.006813484576280296, 0.842768915460158, 0.9865909069264385, 112806000000
-0.06619354995392322, 0.9030489628038985, 0.9861400951557907, 112811000000
2.249758562881151, 0.798788742495227, 0.98648522454585, 112816000000
-0.09859234773555514, 0.9891767779687943, 0.9867553477425769, 112821000000
-0.07932353580935408, 0.9400247716180302, 0.986777821531726, 112826000000
0.03440661181116491, 0.8800909471527225, 0.9868801600352979, 112831000000
0.08414531617320274, 1.076900507939641, 0.9875748563656015, 112836000000
-0.11277895131118763, 0.8062780979105754, 0.9872292373517514, 112841000000
-0.06732175990978059, 0.9666208983896427, 0.9871973803749756, 112846000000
-0.055117325483031714, 0.9769496258988412, 0.9871013842480845, 112853000000
-0.025662533168293235, 0.8587083688433146, 0.9869023991735221, 112858000000
-0.05035565943838376, 0.928043481014088, 0.9865047260877161, 112863000000
0.0707394317379894, 0.8698097894399399, 0.9864784614027173, 112868000000
-0.053138330827874634, 0.9505823475470534, 0.9859066673442164, 112873000000
-0.061886149574614545, 0.9276447506421716, 0.9857021497575829, 112878000000
1.784488008503297, 0.9526743349889725, 0.9864332860858083, 112884000000
0.00837817817137176, 0.937636213813937, 0.9870756965434815, 112889000000
0.052359419681918665, 0.9295171440915384, 0.9868683932491216, 112894000000
-0.05874799470330728, 1.0226259706561067, 0.9877998375875547, 112899000000
-0.08239807569599869, 0.8889274122185074, 0.9876934723452622, 112904000000
0.06694162950823944, 0.8771560264887315, 0.9880663497996173, 112909000000
-0.021173491841960844, 1.0244273309986442, 0.9887238865637473, 112914000000
-0.14732452513497535, 0.9185740422972308, 0.9873887590968574, 112919000000
0.054821365329435275, 0.8759317009705397, 0.9872946137692906, 112925000000
-0.16170659472172907, 0.9955275009030359, 0.9868096478336098, 112930000000
-0.009468815779080965, 0.9591027866448526, 0.9866396247465269, 112935000000
0.1206747236334824, 0.8862209030847311, 0.9861993054827377, 112940000000
-0.1268375200354284, 0.9595800470830775, 0.9860350790622786, 112945000000
-0.009149340946638076, 0.9836437316337348, 0.985761618076664, 112950000000
0.0792271460277967, 0.9029407674398253, 0.9854130207409861, 112956000000
-0.04352818764697733, 1.0724635254747314, 0.9850347106525045, 112961000000
-0.0643134222466736, 0.9195632648990346, 0.9841996362904883, 112967000000
0.0760845844925214, 0.8870222927096135, 0.9844953951233253, 112972000000
-0.12368644986630462, 0.9755262159994468, 0.9844525614897436, 112977000000
0.05046227585566321, 0.9305844870838469, 0.9838416442525708, 112982000000
2.2405104013500394, 0.8886892981328606, 0.9848157757881751, 112988000000
-0.13818537748100973, 0.9884651516874957, 0.9858619898022014, 112993000000
0.005272689417843844, 0.9770746055564696, 0.9863957369349339, 112998000000
0.07789418624659403, 0.8808523415683994, 0.9871193338324494, 113003000000
-0.12066683815861105, 1.017726245583691, 0.9874663220915452, 113008000000
0.023719931142650922, 0.9624399745146485, 0.9877398155661182, 113013000000
-0.2948060843509234, 0.9100344989884452, 0.9887682235750078, 113018000000
0.21978862229553583, 1.0236262469066384, 0.9896613726533059, 113024000000
-0.05847179707423251, 0.9092232944187709, 0.9891857351819686, 113029000000
-0.5185948933940681, 0.9663314983792256, 0.9902988961418984, 113034000000
0.02965115634744862, 0.9686536257108928, 0.9922307837068859, 113039000000
0.41846213611248717, 0.9868114974745896, 0.9943446880948505, 113044000000
-0.33732172480170836, 0.921965485761, 0.9949044395108326, 113049000000
2.1142544388179108, 0.9866730031375184, 0.9972146628414575, 113054000000
0.46981257190784736, 1.0746546304696722, 0.9995316187928601, 113059000000
-0.05500473938019074, 0.9047229514930012, 0.999890351114765, 113064000000
-0.5398493152209016, 0.9782091629689305, 1.0017443199589076, 113069000000
0.2205603534774946, 1.0045894423937265, 1.004175537042614, 113074000000
0.23482038068067904, 0.9626967402627786, 1.0041621432655228, 113079000000
-0.5196255508710399, 0.9436408093120334, 1.0059070846666769, 113084000000
0.1938122412691425, 0.9846058604914741, 1.0068485588338656, 113089000000
0.1926966603214004, 0.9623970822815142, 1.0058636975020665, 113094000000
-0.7191233212816744, 0.982209537555486, 1.005608836828689, 113099000000
-0.05009574653671431, 1.0003700787811824, 1.0076732227614122, 113104000000
0.6417807198400183, 0.9619322620191276, 1.0065399827313897, 113109000000
-0.4816654559923846, 0.9362769853277055, 1.0057275217390917, 113114000000
-0.09295728781919717, 0.9803410792821039, 1.007043108375967, 113119000000
0.6075793749796796, 0.9368987164466892, 1.0054727428214445, 113124000000
-0.07857736529463816, 0.9623866960839111, 1.003791041001988, 113129000000
-0.5488395565628067, 1.000981330859734, 1.0047282944215579, 113134000000
0.6179905035851339, 0.9615580047750416, 1.0054310544541507, 113139000000
0.011262083161526052, 0.9683878959551062, 1.0035617525175138, 113144000000
-0.3822798630791526, 1.013179933034386, 1.0022405334516766, 113150000000
2.4181428197623926, 0.9441636948130339, 1.0025628312502695, 113155000000
0.10921507623055321, 0.9925480256111457, 1.0024266084132225, 113161000000
0.009512720953887442, 0.9973943503297932, 1.0015725436213214, 113166000000
-0.4014234642953796, 0.9895542553847202, 1.0009381467200913, 113171000000
0.42498900154477554, 0.947103851334573, 1.0008394274604955, 113177000000
-0.09502221241805002, 0.9339933172419604, 1.0001409999622652, 113182000000
-0.0225122885002718, 0.9911648311322411, 0.9992267763152759, 113187000000
-0.10934061798582388, 0.9965633834776784, 0.997735383569437, 113193000000
-0.025845054953425504, 0.9950392738656301, 0.9959721350339831, 113198000000
0.023262861909114346, 0.899969512166398, 0.9945832512108104, 113203000000
-0.03001122077523855, 0.9980561892391734, 0.9931708503429454, 113209000000
0.006374492807505107, 1.0276665581816529, 0.9916082539102581, 113214000000
-0.03150469456754574, 0.9573458753807318, 0.99034557157239, 113219000000
2.8998406489628534, 0.9445189949552392, 0.9897525119182227, 113224000000
0.27539396104176167, 0.9782706832971219, 0.9894487119887807, 113229000000
-0.03984051839971835, 0.9851580545573255, 0.9894834150113827, 113234000000
0.024301504652823255, 0.9912269674376626, 0.9897486672374171, 113239000000
0.02554122144459485, 0.974090444542455, 0.9896319762140929, 113244000000
-0.004929749605114867, 0.9763630397682146, 0.9893230038869039, 113249000000
0.048425992409157806, 0.9439314099038244, 0.9893586856866301, 113254000000
-0.08580793682030431, 0.9197550914002417, 0.9889514877729568, 113260000000
-0.0019161838954732, 0.9578824934174294, 0.988617843118423, 113265000000
0.008940671321573015, 0.9479876558587739, 0.9888631180388383, 113270000000
0.007846496540585545, 0.9227880165848371, 0.9888895078189767, 113275000000
-0.007054464700796796, 0.9411034734989195, 0.9891747528950436, 113280000000
0.009460537837381705, 0.9665485847390649, 0.9896801609475875, 113286000000
0.010464296221471442, 0.9601237864612701, 0.990610471787673, 113291000000
-0.045599899157329704, 1.0076808913789561, 0.9907267706226736, 113296000000
0.00863049130714677, 1.0119922924605196, 0.9915242184026283, 113301000000
0.003180576247547558, 0.9856254688455767, 0.9920680958661598, 113307000000
-0.005864874060950398, 0.9795814753244172, 0.9922827079874157, 113312000000
-0.016367138467545495, 0.9896796639971166, 0.9931190986224915, 113318000000
-0.003661672829687444, 0.9785855969254098, 0.9930510580136042, 113323000000
2.1476915106012524, 0.9721955022100062, 0.9944244661205908, 113328000000
-0.005579392742564429, 0.9982159000099805, 0.9960459856559442, 113336000000
-0.034133819474480534, 1.0145258611199872, 0.9970305844084892, 113341000000
-0.020396082234393494, 1.026160886941112, 0.9978001017670939, 113346000000
-0.017935429900180374, 1.0002137160275868, 0.9986336033825497, 113351000000
-0.03201864925756115, 0.9971962773294115, 0.9987185385877811, 113356000000
-0.11309072325852207, 0.9802130592693332, 0.9990562750606874, 113361000000
-0.022143459439904208, 1.0142103897383334, 0.998970340028882, 113366000000
-0.012492402752536571, 0.978177981632039, 0.9986537729429003, 113371000000
0.06983811755580602, 1.0641934938827455, 0.9982479815611496, 113376000000
-0.08718386187376381, 0.9534449958449346, 0.9976869912241584, 113381000000
-0.004211295128205603, 1.0144913239671467, 0.9979639468445544, 113386000000
0.01235070714851054, 0.9653960908085905, 0.9974683279338774, 113391000000
1.8523379082113756, 1.0418186071269853, 0.9987802160067969, 113396000000
0.028160054758311744, 0.9010623704139156, 0.9984226390010331, 113401000000
-0.1685379934128921, 1.0009747294023263, 0.9985242979141363, 113406000000
-0.06221978653082216, 1.0239158169029177, 0.9993896659535842, 113411000000
0.08033989991155746, 1.0650870144556956, 0.9994622429163228, 113416000000
-0.0049574796319894945, 0.9056793381869461, 0.99974733944543, 113421000000
-0.09632669071269455, 1.0136429536910974, 0.9998598391896515, 113426000000
-0.11114944840941386, 1.0321894910756066, 0.9995142144184233, 113431000000
0.05932704048697609, 1.033574225151745, 0.998937800619378, 113437000000
0.006760684893807177, 0.9077032983963566, 0.9978823594628097, 113442000000
-0.03275485530585581, 1.024307180008859, 0.9976070869669178, 113447000000
0.08447255521578306, 1.093987730863476, 0.9968539965300652, 113452000000
0.04357779965586286, 0.9441362160291552, 0.9959807425304165, 113457000000
-0.1335672821401758, 1.0373362265487311, 0.9957681309951564, 113463000000
0.07892122184152903, 1.0848413675569255, 0.9946966372617948, 113468000000
-0.07282003208462018, 0.935485249193231, 0.9943576404505402, 113473000000
-0.027525561531782542, 1.013549368466639, 0.9940254662345855, 113478000000
0.07542159050859672, 1.0909784758759111, 0.9933294788550224, 113483000000
0.0069725460485134845, 0.8901546412890388, 0.9930994959746708, 113488000000
-0.03005250813699934, 1.0877238030562544, 0.9927356331517934, 113493000000
2.1488442606035125, 0.9817321871588381, 0.9926986054402098, 113498000000
-0.0996927128331189, 0.9293399928993398, 0.9937980427216502, 113504000000
-0.0094519636823845, 1.112823211412553, 0.9940460404412962, 113509000000
0.07659654811846452, 0.8792378846925772, 0.9945647773086643, 113514000000
-0.1679218699908247, 1.071645203428077, 0.9943535959772565, 113520000000
0.018404492412905142, 1.0910047348347955, 0.9954473122648946, 113525000000
-0.1842464718923692, 0.9249405265328656, 0.995076222472893, 113530000000
0.046078374841060254, 1.0915627749950945, 0.9948059360878126, 113535000000
-0.03386592777089703, 0.9904742619154341, 0.9940543770809108, 113540000000
-0.11510500961997425, 0.9336132563031756, 0.9942662715409141, 113545000000
0.08657418998332606, 1.0983899312818604, 0.994004060052048, 113550000000
0.005789416786019734, 0.9917811892432931, 0.9933964735979204, 113555000000
-0.13121079686183218, 0.9643613365684283, 0.9933545516556153, 113560000000
2.253995402472319, 1.0990513595687845, 0.9937737568945719, 113565000000
-0.1283936030368354, 0.9538408130600184, 0.9943307544237576, 113570000000
0.022334377984006053, 1.0947494117205707, 0.9950924961505567, 113575000000
-0.008850581557603118, 1.0051147774782314, 0.9950722104476463, 113580000000
-0.15065198630586574, 0.988384934222838, 0.9956501233415677, 113585000000
0.07631285326737802, 1.1083671106147837, 0.9958535421795947, 113590000000
-0.018290014826143595, 1.0660399528188176, 0.9957870708602304, 113595000000
-0.2208925487983984, 0.9563303218848127, 0.9955643856699902, 113600000000
-0.03111473665390989, 1.0476592728269212, 0.9953701891847554, 113605000000
0.06314144342853316, 1.087040998493824, 0.9943958181469675, 113610000000
-0.03410989438339778, 0.9738043541706123, 0.9938066385952693, 113615000000
-0.09785681228297909, 0.9642606612800866, 0.9942040351966831, 113620000000
0.10521215239117618, 1.082775332940855, 0.9932562469003574, 113625000000
-0.030242817141865545, 1.0488534695146272, 0.9928531133361747, 113630000000
-0.11707491442486481, 0.9665330044386978, 0.9930858952963834, 113635000000
0.09823604147322103, 1.129031838269542, 0.9928315939878611, 113640000000
-0.032718989776111915, 0.9912955017515961, 0.992633555705079, 113645000000
-0.18119138386991246, 0.9688768870020149, 0.9922566729474244, 113650000000
0.09253928319703149, 1.0660916412941914, 0.9926891795005507, 113655000000
0.04059788480448796, 1.0421338190613467, 0.9920316008956941, 113660000000
1.7548347942105273, 1.0360218684372549, 0.9924656089867564, 113665000000
-0.07912108943227461, 0.9827710002649152, 0.9928109850966484, 113670000000
0.06893585352531634, 1.107378175884903, 0.9940744551061458, 113675000000
-0.02986560898383402, 1.0510278885005773, 0.9940732761907948, 113680000000
-0.15341472033158327, 0.9409911107198486, 0.9945763261718599, 113685000000
0.08667085650351006, 1.1207927052833786, 0.9951242541515987, 113690000000
0.002649605019582321, 1.0026115557061788, 0.9949006419598784, 113695000000
-0.21878427963141361, 0.962488311709398, 0.9947022974754808, 113700000000
0.08006509373425033, 1.1045582286098714, 0.9948256842851522, 113705000000
0.01910779562002829, 1.0083301079944018, 0.9938629056405556, 113710000000
-0.017044979970273932, 1.0558543663464266, 0.9937624611099375, 113715000000
-0.11003821868144713, 1.0171088597915994, 0.9932915601325762, 113720000000
0.11324383339264818, 1.112509704698587, 0.9931246878170006, 113725000000
-0.03167566403243744, 1.0584141028097167, 0.9925654576318719, 113730000000
1.4664185062728097, 1.0226581796670562, 0.9939206242406254, 113737000000
-0.3992884072888363, 0.9805781220397344, 0.9969079406543896, 113742000000
0.4629185424912885, 1.0312850115901728, 0.9998335562762611, 113747000000
-0.55859453341823, 1.131866106955821, 1.0019087518142147, 113752000000
-0.007525349522852769, 1.0516949510500202, 1.005228326646826, 113757000000
-0.034095819161601704, 1.0001076201477672, 1.0091645059631005, 113762000000
-0.14190795986337776, 0.9900334218427213, 1.0121535623125792, 113767000000
0.38228384263083465, 0.9743508123353282, 1.015108547157808, 113772000000
-0.4456209349210831, 1.2853156480867673, 1.0169706856145653, 113777000000
-0.0509311086976231, 1.0474399272504842, 1.0186320338622379, 113782000000
-0.004091122760331935, 1.0283172026966558, 1.0209517736911686, 113787000000
-0.08135832921853749, 1.0955540063899996, 1.0237378928171406, 113792000000
0.6115058692512377, 1.0873668346477117, 1.0238484552455889, 113797000000
-0.5871935188912087, 1.1211989180135873, 1.025983884105494, 113802000000
-0.021364626464718896, 1.0067796064289363, 1.027379797392759, 113807000000
0.37957807712321145, 1.0878771650600556, 1.029292901613154, 113812000000
0.17251124554030284, 1.1268638542988352, 1.0285599186930268, 113817000000
-0.6390213995239638, 1.0513249061719736, 1.0297009677180688, 113822000000
0.0023184320434510757, 1.0576582888714674, 1.0313835213072988, 113827000000
0.5186020360545945, 1.1734686507627765, 1.031874829357104, 113832000000
1.7654463223500545, 1.0536531687090256, 1.0316390946168843, 113837000000
-0.1469751507742769, 1.0616984002101826, 1.033307957925497, 113842000000
0.4172528986460705, 1.1113289546456069, 1.0348708411083816, 113847000000
0.15722862068929788, 1.1237135485704848, 1.0337547662047362, 113852000000
-0.5527039770862354, 1.0639941785001583, 1.0346061255946717, 113857000000
0.6970728045042766, 1.1817897907143833, 1.0350517470970169, 113862000000
0.06228510371619672, 1.081262719970269, 1.0336942692765294, 113867000000
-0.6561197760230755, 1.0822613245752317, 1.0335612398456606, 113872000000
0.8766109137489867, 1.1816389875500923, 1.0324955011731785, 113877000000
0.03642747925522845, 1.027056951695535, 1.0293044064851025, 113882000000
-0.7035170732103053, 1.0395727881212924, 1.0284049362882994, 113887000000
0.5848707546905929, 1.1434480401385445, 1.0261006159038335, 113892000000
0.013882935095145906, 1.0378681451652831, 1.023957597404478, 113897000000
1.0828757238065012, 1.0682682863964303, 1.0225110089449951, 113902000000
1.045880620951304, 1.134746576684013, 1.0227066384954755, 113907000000
0.031059598143345045, 1.1095559742905112, 1.0206801892807358, 113912000000
-0.03231858072716101, 1.051858300681162, 1.019456731560861, 113917000000
0.013707360728054178, 1.0897404294889264, 1.017744058076222, 113922000000
0.016153023898902948, 1.0545612074434054, 1.016514908903846, 113927000000
-0.0010239430896747947, 1.078195319195304, 1.0150556607320809, 113932000000
-0.12886688248604725, 1.0845367990114527, 1.0134760945813193, 113937000000
-0.0112375688301841, 1.0473484446414238, 1.0114717079054503, 113942000000
0.023183364016714433, 1.0421022750979347, 1.0098265681682435, 113947000000
0.0041973966350799695, 1.0538466720773798, 1.0078651827425127, 113952000000
0.014378005143025466, 1.0745633648285042, 1.0065453874928245, 113957000000
0.04145573479317426, 1.1153434404832026, 1.0038159868309908, 113962000000
0.028982530264402524, 1.093823485857151, 1.0023272842037643, 113967000000
0.06716900238130219, 1.1520451631050388, 1.00039776537432, 113972000000
-0.03548127094956573, 1.0067029623115742, 0.9992836053756324, 113977000000
0.003535659853552727, 1.0680677843200919, 0.9973860936783735, 113983000000
0.05396736463961654, 1.1301491724421002, 0.995511576373727, 113988000000
-0.07791077846392426, 0.9835422471437729, 0.9943380901361839, 113993000000
-0.0034911840878542773, 1.048543357130761, 0.993310512704746, 113998000000
0.04184866644015016, 1.1079856250581148, 0.9923576978451559, 114003000000
2.2164894936388855, 1.0775646197419266, 0.9923522513423619, 114008000000
-0.05866666295808111, 0.9829485456890448, 0.9922383324885293, 114013000000
-0.03940342145396706, 1.0452847960494323, 0.9920167648491992, 114018000000
-0.014897786870978574, 1.0812771794550449, 0.9922602035010577, 114023000000
-0.015015118818284046, 1.0251779226473405, 0.9921161829021652, 114028000000
0.02910423095158627, 1.068678529147406, 0.9923686373298118, 114033000000
-0.03175678145716802, 1.0634307183624188, 0.9923075113296617, 114038000000
-0.04672820559883078, 1.069975187392741, 0.9922182099980422, 114043000000
-0.0034786930138727603, 1.0740919960617519, 0.9910639879123908, 114048000000
0.04284539811674831, 1.0788051402747123, 0.990669431314637, 114053000000
0.00797437428693724, 1.0707365975026546, 0.9904351207632635, 114058000000
0.01120789752107761, 1.0591491561433213, 0.9899060876508596, 114063000000
0.05482729360153604, 1.029274172750244, 0.9896744303126005, 114068000000
2.6750313797600405, 1.0645503987688958, 0.9892444016425385, 114073000000
0.0704205182444459, 1.0854943258427063, 0.9898614867879275, 114078000000
-0.007837979978907856, 1.0931511912357983, 0.9902361104411596, 114083000000
-0.0028786615222154604, 1.0504150767224725, 0.9910223703969894, 114088000000
0.011255508957034439, 1.0529092849318393, 0.9910829822433617, 114093000000
0.021051453023375816, 1.073385627600168, 0.9913997061276364, 114098000000
-0.01942030399581913, 1.0558571039486735, 0.9920012445629163, 114103000000
-0.11333341037276694, 1.0478968467209953, 0.9915090320887116, 114108000000
-0.009011430997098623, 1.068507853381669, 0.9908006459711307, 114113000000
0.01152606573963596, 1.0620946541144487, 0.9910217118450338, 114118000000
0.007673803596023069, 1.0980169004628897, 0.990076978022059, 114123000000
-0.027178138338999965, 1.0582259163348238, 0.9902715650336893, 114128000000
0.002804499789799907, 1.0646422596370644, 0.9899357689577368, 114133000000
0.01151166974195061, 1.0804168582095242, 0.9894810400545023, 114138000000
0.004874947057533177, 1.0757576860499176, 0.9895868427215827, 114143000000
0.004108862451241905, 1.0838092885853567, 0.9890202836790112, 114150000000
-0.0056689212712540855, 1.0854630916405066, 0.9891103407108545, 114155000000
0.015318485529329906, 1.0522205791714794, 0.9888127751760817, 114160000000
0.012342084725826506, 1.0746985780792193, 0.9883456036251824, 114165000000
0.023576273509284523, 1.0674590908520096, 0.9882961135757219, 114170000000
2.1456713920153234, 1.0801808285354764, 0.9881815630059437, 114175000000
0.07916492287919362, 1.0932541989880897, 0.9891180394649941, 114180000000
-0.015426871535471553, 1.065978584929702, 0.9898712276407374, 114185000000
-0.012697153945576958, 1.0807655803172176, 0.990178830255741, 114190000000
0.004808439104282969, 1.0892785480792877, 0.9909838774611734, 114195000000
-0.012412213977760067, 1.0849888384097657, 0.9912195014269973, 114200000000
0.008988003636266331, 1.120372316950548, 0.9917063693493864, 114206000000
-0.11123496479631206, 1.1159266109311392, 0.9917394256714218, 114211000000
0.016772339059180845, 1.0818694202635135, 0.9913501565704402, 114216000000
-0.010152375621407674, 1.0725049217113887, 0.9915529355229454, 114221000000
-0.024541321390059326, 1.110746142977078, 0.9910011003526209, 114227000000
0.003756599370774273, 1.1238914766562624, 0.990824139289645, 114232000000
-0.018198082418851232, 1.0652545135037126, 0.9905779162928513, 114237000000
0.0004938693955773857, 1.0958578194540627, 0.9904744143253034, 114242000000
2.184201789102187, 1.074978438415831, 0.9910132036285518, 114247000000
-0.019607887644269906, 1.1028766808752977, 0.9919415154285045, 114252000000
-0.041417468142710384, 1.0811720094158483, 0.992831075345993, 114257000000
0.015119407663146425, 1.099572008653423, 0.993280490752463, 114263000000
0.01227467039195818, 1.0860940740545397, 0.9939223971245478, 114268000000
-0.011673724629629895, 1.1303966913342518, 0.9937873661909382, 114273000000
-0.12540097803259254, 1.0948301686796849, 0.993256735352466, 114278000000
-0.03178837586483315, 1.1053111847338712, 0.9927862383290933, 114283000000
0.019381749261395298, 1.0901421799612352, 0.9919299306142656, 114289000000
0.03738921665117696, 1.0939180721979782, 0.9918710603580011, 114294000000
-0.002499017744889521, 1.0652014529831562, 0.9906489828300954, 114299000000
-0.020524490630743925, 1.103617695286603, 0.9900647547399035, 114304000000
1.5240510407973162, 1.0721021552910728, 0.9898844775451979, 114310000000
0.3260022756357293, 1.0966168259615414, 0.990626664347366, 114315000000
-0.08775333637123364, 1.1425626964937237, 0.9911332678403004, 114320000000
0.06507635655920237, 1.1056273767860025, 0.991437159119265, 114325000000
0.024625572977043368, 1.1461359628456862, 0.9922714661515822, 114330000000
-0.04326100109655204, 1.107494672753108, 0.9916210668160534, 114335000000
-0.07263196535550083, 1.1379389379932703, 0.9922049873260705, 114340000000
-0.014031493786391205, 1.1484502553473155, 0.9922384013188345, 114347000000
-0.008873295603020893, 1.0746470664758874, 0.9915070685815449, 114354000000
-0.01524251136291445, 1.1114562825251322, 0.9904681978893056, 114359000000
-0.07681878684351691, 1.167198504671232, 0.9896432720424578, 114364000000
0.04377133853186204, 1.1165442897780127, 0.9887226646230416, 114369000000
0.011782256255453039, 1.188087056007606, 0.9883920498991062, 114374000000
1.3701619585343512, 1.083215898248558, 0.9890697252629628, 114382000000
-0.08776866553818757, 1.061220808987444, 0.9892991323481838, 114387000000
0.006684609569610232, 1.1761459048559153, 0.989694858927337, 114392000000
0.050048156016046424, 1.1096180819207153, 0.9901786724756828, 114397000000
0.107549069529725, 1.0427565111114092, 0.990249352996685, 114402000000
-0.1528184313245365, 1.2419256772807465, 0.9905427950130488, 114407000000
-0.02584766787507873, 1.115029742230307, 0.9908760627367391, 114413000000
0.12104131025060466, 1.0081845069173385, 0.9904098130279447, 114418000000
-0.24561876903895635, 1.212542886266081, 0.989833585142444, 114423000000
0.07290955385864882, 1.0770296022412649, 0.9887918512657721, 114428000000
0.08520335656732286, 1.1289472279098058, 0.9886220681813142, 114433000000
-0.18014408585514724, 1.1126537817848945, 0.9873753097602538, 114438000000
0.05283587918983555, 1.0831348005954136, 0.987206254802287, 114443000000
2.145005795190836, 1.1289752205975543, 0.9875808384007835, 114448000000
0.32245423172907517, 1.1515777130487785, 0.9868374237631843, 114453000000
-0.21968155917042415, 1.0808455278744546, 0.9868419451147059, 114458000000
-0.11666536197828457, 1.1425724726973772, 0.9876445311015394, 114463000000
-0.02757001209576771, 1.0806480978641972, 0.9876117311314174, 114468000000
-0.050721567417756463, 1.1975130074596274, 0.9874500549741647, 114473000000
0.03774425738712536, 1.119619452429005, 0.9877695792932307, 114478000000
-0.28412748195047133, 1.113277770899795, 0.9899207450958833, 114483000000
0.03641409075670795, 1.1745723887316901, 0.9899121214514669, 114489000000
-0.3368564893188562, 1.1023410917473488, 0.9917518465411777, 114494000000
0.0886249361909485, 1.2089062524297478, 0.9944789889004865, 114499000000
0.17136895207453745, 1.1716270356422154, 0.9959066338270157, 114504000000
-0.2999920173789607, 1.090782599303618, 0.997843924930885, 114510000000
-0.2416302013225659, 1.202953289129371, 1.0012589229177822, 114515000000
0.15455448882033668, 1.1413406986313053, 1.005055743460569, 114520000000
0.11683748787911775, 1.1723559854419325, 1.006930134625383, 114525000000
-0.22469328043343503, 1.1682981225707025, 1.008618514536937, 114530000000
-0.03558999399939204, 1.1439902530915078, 1.010238031828334, 114535000000
-0.0073884899836843074, 1.1514401500789964, 1.0118336836961648, 114540000000
0.05363700470107433, 1.1668972854178636, 1.0129989354408806, 114545000000
1.897508697969011, 1.1357825961823687, 1.016176574914239, 114551000000
0.006241727857360274, 1.1765741067313655, 1.0179240211501643, 114556000000
-0.04355109249736802, 1.1860647518508984, 1.0199884344303847, 114562000000
0.48683969964427987, 1.1384875173670221, 1.0208647428738695, 114567000000
-0.6490436928868304, 1.2400450897238589, 1.0215868705344195, 114572000000
-0.05343075854782061, 1.172304707543027, 1.0227896226249489, 114577000000
-0.2327544058277624, 1.1758973809372555, 1.0259583286407479, 114584000000
0.23293408902447169, 1.2240981421479107, 1.0253296522476265, 114590000000
-0.11870478198405576, 1.1876664326375639, 1.0265672162920636, 114595000000
-0.0659646172965151, 1.134673883506721, 1.0274309275449531, 114600000000
0.5388714539538524, 1.16851378887926, 1.0245972207549319, 114605000000
-0.6413066322938323, 1.1523676189560905, 1.0248259155025061, 114610000000
1.8916303561436332, 1.1884518698835327, 1.0230392101369212, 114616000000
0.37056649292854693, 1.1944193582817217, 1.0214931873145887, 114621000000
-0.4060382336307817, 1.1192607232906473, 1.020781121879662, 114626000000
0.3866644203958467, 1.266148806343728, 1.0202402029687205, 114631000000
0.018632511664761743, 1.2163927532833025, 1.0184627485894888, 114636000000
0.0881911203466319, 1.1298411491835318, 1.0166358084291778, 114641000000
-0.0512307577412065, 1.1439428953730824, 1.0149018334116853, 114646000000
-0.19017855870160733, 1.2731024855218842, 1.0127104689417543, 114651000000
-0.06095197748371815, 1.181479879849167, 1.0107784895820986, 114656000000
0.048731660276211494, 1.1236093084619898, 1.0079288266796158, 114661000000
-0.060072849520720915, 1.2454192267213338, 1.0051488408337492, 114666000000
-0.032172260352725704, 1.174376674378506, 1.0029047434025236, 114671000000
0.0387174934816727, 1.0986301889750751, 1.000942729610936, 114676000000
-0.06070494716163007, 1.2064545079874596, 0.9995212797429445, 114681000000
1.8243915565453817, 1.1765686150102062, 0.9981219248083567, 114686000000
0.09996245127025796, 1.0949978857882694, 0.9976999478010032, 114691000000
-0.07065165578961603, 1.1739739875191026, 0.9978155881964951, 114697000000
0.0008763489301604355, 1.1642817751666352, 0.9968169893428283, 114703000000
0.0766764475947384, 1.107088532167211, 0.9970374510066682, 114708000000
-0.0340283509815426, 1.2609698260605549, 0.9964126673929831, 114713000000
-0.06856143581075405, 1.1576453316039064, 0.9953091973006015, 114718000000
-0.012276258860877302, 1.1131629248627357, 0.9941538006609172, 114723000000
-0.016347271827270977, 1.125993055195052, 0.9935329233353591, 114728000000
0.045694351726657034, 1.3185641211837567, 0.9918332587464628, 114733000000
-0.07242431419642067, 1.1587425984817588, 0.9905974523287047, 114738000000
0.06380291321562065, 1.077956866646785, 0.9899163345814975, 114743000000
-0.15516210402129815, 1.2113842537135038, 0.9891718025733858, 114748000000
0.06037499122708128, 1.1849202321098202, 0.9876771198967818, 114753000000
-0.03606669162612268, 1.1303704043936553, 0.9870243124520016, 114758000000
0.06542967855931797, 1.141558055012413, 0.9865331297694167, 114763000000
0.03629131183965557, 1.1855646672526496, 0.9855412746318211, 114768000000
-0.15428302640895913, 1.1253735750725409, 0.984496644488157, 114773000000
0.02596942674082387, 1.0476589588274174, 0.9845618378851336, 114778000000
0.12763751539482218, 1.3194510416554772, 0.9829688870120615, 114783000000
2.4761575102385693, 1.078798636662317, 0.9829385835586124, 114788000000
0.05144462867687656, 1.1022894446912022, 0.9838797597009805, 114793000000
0.07082629388971748, 1.2183947428266086, 0.9847943127436773, 114798000000
-0.09160293254271197, 1.1307040740740109, 0.9847992547504473, 114803000000
-0.06174737427608862, 1.2094002897770282, 0.9848204215574802, 114808000000
-0.0489002641122194, 1.1529004069265785, 0.985058572945465, 114813000000
0.032428751040993686, 1.1848128308514665, 0.985771469245619, 114818000000
-0.13395742831339655, 1.1764339921138098, 0.9848591362865686, 114823000000
-0.08193934624684837, 1.177075861256898, 0.9843167349244115, 114828000000
-0.01622124974881652, 1.1168467997494835, 0.9839177563945856, 114834000000
-0.012078058559179788, 1.0865778478577421, 0.9839624080561606, 114839000000
0.08559678559044571, 1.1312049645252265, 0.984118265190402, 114844000000
-0.07224855440593385, 1.1373381272329577, 0.9842671352317719, 114849000000
1.7306141406628415, 1.1336162146474413, 0.9854428590195148, 114854000000
0.44076029268304795, 1.1709296884732259, 0.987163150823037, 114859000000
0.01752340761678388, 1.3284981228838255, 0.9887303550337413, 114864000000
0.023654250821939515, 1.0385600850330656, 0.9902363742965353, 114869000000
-0.1259429586424992, 1.1730350083917531, 0.9913346551160138, 114874000000
-0.03092668209648503, 1.2185619333844737, 0.9927300119347902, 114879000000
-0.014559091913749812, 1.1842517545772422, 0.9943443423865511, 114884000000
1.807285296033562, 1.1787145376687755, 0.995392002824392, 114889000000
0.06573053947575278, 1.1644369722142174, 0.9951606120502021, 114894000000
-0.04501577152727587, 1.2152152857789282, 0.9952490188528414, 114899000000
-0.017946655276912128, 1.19804642422339, 0.9958337114472448, 114904000000
-0.040753110452153817, 1.2108597219507975, 0.9961280703700125, 114909000000
-0.028759303294231545, 1.1700734595883986, 0.9954549501188674, 114914000000
0.06560144976381319, 1.1754848581866333, 0.9954594624036182, 114919000000
-0.024011868503941387, 1.2090116218403963, 0.9951103756126627, 114924000000
-0.03137119353453753, 1.1884283428851923, 0.9951259495992966, 114929000000
-0.01792708538544566, 1.1900124907706193, 0.9952693145594234, 114934000000
0.13322359564489172, 1.1405659519061884, 0.9945399405900466, 114939000000
-0.11514714694057737, 1.1976377326300371, 0.9939364632163002, 114944000000
-0.014128088680453935, 1.2303496531846922, 0.9938628976433915, 114949000000
-0.008816866966627767, 1.199894877303621, 0.9937398482339489, 114954000000
2.0463860718576807, 1.1944522079430486, 0.9938756903173218, 114959000000
0.08942448010597918, 1.1811413123474241, 0.9940522024204929, 114964000000
-0.12820179722188962, 1.240793465489568, 0.9942616056149669, 114969000000
-0.024399386826228223, 1.2266353268265142, 0.9949397382270011, 114974000000
0.07049890654490384, 1.2362627016947862, 0.9944436874900495, 114979000000
0.05193133594286288, 1.0995367318351943, 0.9944237019316439, 114984000000
-0.12208011397307635, 1.230011477835045, 0.9949051889975795, 114989000000
0.04360755204614862, 1.2872164388379908, 0.9945999064876206, 114994000000
0.03611079043034062, 1.1232504932145218, 0.993972241282162, 114999000000
-0.09569575584419963, 1.2395692234632827, 0.9942143032552474, 115004000000
0.030788272987015263, 1.2441694878014837, 0.993884974406632, 115009000000
-0.19975667823108514, 1.0529766905277649, 0.9935220415627085, 115014000000
0.002198605565474996, 1.2361098287730141, 0.9934524420364573, 115019000000
0.09027666403357062, 1.254228762233709, 0.9933910593339913, 115024000000
2.376823588302446, 1.0841128257733437, 0.9935951610982677, 115029000000
0.07297437741863029, 1.234422555033197, 0.993873621259138, 115035000000
0.048404460337006155, 1.2801688776126954, 0.9934267969300069, 115040000000
-0.03534648868950059, 1.1146537612902316, 0.9932154534922811, 115045000000
-0.07205406447494611, 1.2650246195309598, 0.9930788015659635, 115050000000
0.07147626199514054, 1.2828930311886595, 0.9923971016362798, 115055000000
-0.008065959645323778, 1.1272652897140563, 0.9922339024225955, 115060000000
-0.06778861264623887, 1.2690947639848218, 0.9924212960045203, 115065000000
-0.39094736271500713, 1.2794738507175447, 0.9938438020886615, 115070000000
0.30453779205147957, 1.1557020654717143, 0.9960430283879926, 115075000000
0.14347295176759303, 1.221582605486582, 0.9972577279715589, 115080000000
-0.5428441685597722, 1.1815448345746307, 0.9993891427442858, 115085000000
-0.048890675206674575, 1.2142686312677395, 1.0034249570720284, 115090000000
0.500457472915213, 1.267274802910678, 1.0058089805912955, 115095000000
-0.3538289477805275, 1.2168799628322924, 1.0092239611131504, 115101000000
-0.029247553514381193, 1.2055725650253406, 1.0121044266688288, 115106000000
0.3218733651181181, 1.3125457730029497, 1.0152777076095427, 115112000000
-0.568150235860266, 1.223415882317133, 1.0167507209167974, 115117000000
0.02580216153811927, 1.2053542403199222, 1.0200558550153453, 115122000000
2.3576041901637725, 1.2538555749776468, 1.022671083982941, 115127000000
0.5671763724347311, 1.315094742900066, 1.0244384093230594, 115132000000
-0.4305320801983, 1.2220514283304893, 1.026722001987392, 115137000000
-0.027680897445333013, 1.2705857435348826, 1.027861280583931, 115142000000
-0.038413525263094744, 1.2570814030638837, 1.0311993195479046, 115147000000
0.765439515906379, 1.321766536333367, 1.0309469679466292, 115152000000
-1.543549852037765, 1.1820860493687388, 1.03136987828355, 115157000000
0.0036522739634382555, 1.2603929369086329, 1.0337784149937639, 115162000000
-0.04449578258446801, 1.2632845509052473, 1.035835914457183, 115167000000
-0.03022185189712081, 1.291086558259155, 1.034918287481153, 115172000000
0.014779605493789282, 1.255083083981935, 1.036843647036902, 115177000000
0.6807745955070348, 1.3180812964773916, 1.036777770976779, 115182000000
-0.7157800582442663, 1.2871246073137352, 1.0356101001831632, 115187000000
0.009693673539370866, 1.2776405074578174, 1.0361932270052545, 115193000000
1.9286556454692074, 1.2513061456941228, 1.037800847212815, 115198000000
0.04006952874015541, 1.2897046695909478, 1.0352201462972859, 115203000000
-0.7484879675206773, 1.2586265782481916, 1.036298071615303, 115208000000
0.019207770313633264, 1.26972801759328, 1.0376260616395607, 115213000000
