acc_x, acc_y, angular_z, stamp, 
-0.047700238934944336, 0.017320878324281752, -7.063782242985751e-05, 191459000000
-0.050392414324467824, -0.011175347996374391, 3.5522468160802676e-05, 191464000000
-0.061004310911987936, -0.01377231088077837, -9.250535754334942e-05, 191469000000
-0.04327564246938308, -0.002640319376409796, 0.00013627301057531397, 191474000000
-0.0505347029589551, -0.020396056036457565, -8.807091376456377e-05, 191479000000
-0.04638763101175123, 0.012711538177256537, -0.0001262498643321926, 191484000000
-0.05946709934966555, 0.011770942761083454, 0.00014857496568501777, 191489000000
-0.035020045514812435, -0.008470060679321469, 0.0002454790545723083, 191495000000
-0.06972992842751174, -0.016035420915803365, 0.00012130595105362994, 191500000000
-0.05474575111149432, 0.0032793936831270686, 5.73032265097761e-05, 191505000000
-0.021774153764380137, -0.027912660884399018, 8.16010946812303e-05, 191510000000
-0.06969756205621346, -0.015018611107874101, -8.83710180036143e-05, 191515000000
-0.039452585316693864, -0.007686070371941817, -0.0002167573714719827, 191520000000
-0.06842543799272126, 0.022667603598410243, 0.012158296153883795, 191525000000
-0.10058124056727027, 0.03263869724194911, 0.05983825235312006, 191530000000
-0.12841300810504075, 0.12219216023165287, 0.1271836688096266, 191535000000
-0.08730269849965427, 0.18743902395297413, 0.2246874876434648, 191541000000
-0.09466975287578779, 0.014527268239175533, 0.2953782395303797, 191546000000
-0.06239743744308333, 0.5136554588014188, 0.4015859086563161, 191551000000
-0.1275369503490805, 0.2541369147588287, 0.48375216158958145, 191556000000
-0.06766478063244666, 0.6638424735904768, 0.5840871806145875, 191561000000
-0.08822155176355326, 0.6140206939717657, 0.6972774437585734, 191566000000
-0.10896249154833687, 0.7477546415993908, 0.8117660892221882, 191571000000
-0.024767588092494106, 0.8681502351255677, 0.9177069130943558, 191576000000
-0.18877410766898092, 0.8094024404345727, 1.0108451058160086, 191581000000
0.0892339372166475, 1.2299267026729714, 1.085227541908952, 191586000000
-0.1469360358160137, 1.0465486912595958, 1.1566493877919342, 191592000000
0.11324999632500271, 1.388910672374204, 1.1884482242187908, 191597000000
-0.05226333402141146, 1.2119376119581748, 1.2135904810212177, 191602000000
-0.1048783441303977, 1.2221515415804336, 1.2248663693269508, 191607000000
-0.05926754771411834, 1.231778796022617, 1.2204755604339081, 191612000000
-0.07384697517391398, 1.0790922344756397, 1.2036331370466498, 191617000000
-0.06193819074704707, 1.3671450743816858, 1.1752964455859751, 191622000000
-0.01810554323958198, 1.0734859160092511, 1.1385360588195599, 191627000000
0.05282261923541921, 1.1042500570557137, 1.0956159632100395, 191632000000
-0.08904679939887052, 0.9216877155979439, 1.0593419735820424, 191637000000
-0.06133031430814834, 0.9486819107445423, 1.014444931974613, 191642000000
-0.005136494526530075, 1.1701751601668087, 0.9634637034746849, 191647000000
-0.1651029931470474, 0.8072259398290559, 0.9280563664571523, 191652000000
0.05805440002265173, 1.07603667197043, 0.9001070295737742, 191657000000
-0.21819686719122722, 0.7291909364036049, 0.8805879464213109, 191662000000
-0.016669522197942658, 0.8932342424271973, 0.8711490852776581, 191667000000
0.09818366474343779, 0.9978289501161197, 0.8695469900551254, 191672000000
-0.18985616869059066, 0.7230673072751829, 0.8773767243134251, 191677000000
-0.03428604353557997, 0.9324014925204925, 0.8922781623666632, 191682000000
0.05394706056644222, 1.0301173152983716, 0.9120674247966402, 191687000000
-0.2317509047328266, 0.7746571466562465, 0.9320444502052192, 191692000000
-0.02989870383891774, 0.9600117996779415, 0.958128799535857, 191697000000
-0.06058690131513697, 0.9898063032370119, 0.9849316744086829, 191702000000
-0.08180119878577193, 1.0063526155830431, 1.0159068630431536, 191707000000
0.05362270283312095, 1.1299417531917377, 1.0374434419772487, 191712000000
-0.1767401700629845, 0.9198003980529216, 1.0553925203962913, 191717000000
-0.04836503679030464, 1.098455575007219, 1.0687502058104652, 191722000000
0.02520094392407621, 1.1889537070908986, 1.0762254403021205, 191727000000
-0.1267095184281258, 0.9801215269816658, 1.0780592643067766, 191732000000
-0.012130208288756533, 1.1023792800221248, 1.075072365269936, 191737000000
0.04963392240564507, 1.1510147725624282, 1.067688202290276, 191742000000
-0.14198787260692725, 0.9940030878107975, 1.0559295149065504, 191747000000
0.011610776164020294, 1.0747013654965734, 1.0418460301806671, 191752000000
-0.04272326628437453, 1.0687836140459994, 1.0261740056338107, 191757000000
-0.0517548124955568, 1.0000944208729154, 1.0094421951525772, 191762000000
-0.03485283314088475, 1.0130780576166305, 0.99431440632512, 191767000000
-0.006199082289980715, 1.0154232504202085, 0.980394361403326, 191772000000
0.04938646418417723, 1.086075967916545, 0.9689505482722114, 191777000000
-0.13543563596790187, 0.9201539100760749, 0.9604075425449302, 191782000000
-0.0792558456431071, 0.9748257004280129, 0.9558563919230733, 191787000000
-0.004027101871208437, 1.0241435318968302, 0.9528479478134672, 191792000000
-0.1633609816438479, 0.8893020364855398, 0.9538690992992338, 191797000000
-0.08083387997581429, 0.9685363727574436, 0.9551504755446829, 191802000000
-0.02088888009123894, 0.9761442470671736, 0.9645604986345819, 191807000000
-0.07839864693595518, 0.9933818142619518, 0.9725587068865071, 191812000000
0.01460026399243958, 1.099055476880158, 0.9820872947844924, 191817000000
-0.13369361695472154, 0.924510811110435, 0.9919798972932332, 191822000000
-0.061259582707621864, 1.038775662806546, 1.001378232742247, 191827000000
-0.06370216085794672, 1.0342812863312965, 1.0103342129675603, 191832000000
-0.05932131941076024, 1.0256165516434481, 1.0176683206106147, 191837000000
-0.03522182007528214, 1.0641120971226148, 1.0233969780998569, 191842000000
-0.054600137943615734, 1.0373050223589124, 1.0268909185706876, 191847000000
-0.005568273767994139, 1.0492528281576694, 1.0287713807902308, 191852000000
-0.06925291847531473, 1.0643563720707059, 1.0278950964048632, 191857000000
-0.03591834958876367, 1.0621983887438717, 1.0259642890867122, 191862000000
-0.05890452752610325, 1.0553501732569024, 1.022141376351265, 191867000000
-0.03851616726837017, 1.043520881649821, 1.0173352887826486, 191872000000
-0.020524718299989003, 1.067133648170493, 1.0113797739996173, 191877000000
-0.05912788099508679, 1.0579720235634629, 1.0055031304616562, 191882000000
-0.021268871861107923, 1.0579435044614225, 1.0000306698630241, 191887000000
-0.19196027384683098, 1.0282406115085732, 0.9945820109622644, 191892000000
-0.11144232920165066, 1.1342726127271043, 0.9931285522229133, 191898000000
-0.1763226091755876, 1.0572379389980844, 0.996010991620627, 191903000000
-0.16988298539290225, 1.034543984974164, 1.0011818263517873, 191908000000
-0.17686114232272698, 1.0481162601152818, 1.0093377265523953, 191913000000
-0.14393163278950963, 1.0697620245715824, 1.0165879392604904, 191918000000
-0.1369099052953318, 1.1138818405309598, 1.024776037535637, 191923000000
-0.10143416355973232, 1.0848098975239304, 1.037048972931652, 191928000000
-0.04058389643038033, 1.1146465011942246, 1.0491497156870957, 191933000000
-0.034196189556631035, 1.1013845352372167, 1.056407983594822, 191938000000
0.5553661547701728, 1.0018801565342859, 1.061703148997629, 191943000000
0.11702581716715445, 1.0027822382689577, 1.061710903876744, 191948000000
-0.10212907270221874, 1.1417372677954278, 1.0587878042370118, 191953000000
-0.027909257969277238, 1.2004898580466719, 1.0527221278997907, 191958000000
-0.21183696457127862, 1.0613973921321342, 1.0493376764341742, 191963000000
-0.030245534324927246, 1.120788680050464, 1.0456488466753113, 191968000000
0.06181023802345815, 1.1563167703806647, 1.041309093035351, 191973000000
-0.0971328270884527, 1.0509959270501608, 1.0365100015846374, 191979000000
-0.018927010739026806, 1.1356241590564151, 1.0334634152461941, 191984000000
0.04541810042947596, 1.1833723068196929, 1.0298803290360186, 191989000000
-0.1682254479286358, 0.9910537705329079, 1.026362789603014, 191994000000
-0.01801981216001056, 1.115120762993515, 1.0242529606970436, 191999000000
0.09156030805048483, 1.1613833550215755, 1.021734405163994, 192004000000
-0.07876770945439564, 1.0621449805327556, 1.0178797183547323, 192009000000
-0.19710295739232206, 1.0233494257400977, 1.01662714486883, 192014000000
0.10719878208814593, 1.145425196534974, 1.0147092539503328, 192019000000
-0.038700232824949526, 1.067233462628969, 1.0120197019984971, 192025000000
-0.10586419463674021, 1.0284117119693201, 1.0097739240294208, 192031000000
0.08200881493650586, 1.1738202492237897, 1.00884746536599, 192036000000
-0.06679305749885948, 1.0876975927167662, 1.0072392488644706, 192041000000
-0.02257167040154191, 1.067980203539847, 1.0056954918235235, 192046000000
-0.04531443846415785, 1.1043675303675295, 1.0037123488127009, 192051000000
-0.04188514185542878, 1.079864062154357, 1.0029144975865, 192056000000
-0.06860889416762037, 1.1093348566949313, 1.0019185851071406, 192061000000
-0.007692868856646632, 1.086373377568078, 1.0004681188373235, 192066000000
-0.061620616103606585, 1.0800126832015655, 0.99942536412633, 192071000000
-0.026880484595938753, 1.0719647475815297, 0.9980914512445782, 192076000000
-0.03714168316361626, 1.0856325401815488, 0.9973365890000727, 192081000000
-0.038219426939756974, 1.052883679162333, 0.9965501292174805, 192086000000
-0.03812466643996278, 1.1183989343346774, 0.9957419441871247, 192091000000
-0.0487312156538143, 1.1052281334743193, 0.9949357154560613, 192096000000
-0.02519450191931811, 1.0599728540836082, 0.9945518692079446, 192103000000
-0.027143769961421003, 1.1202806519534139, 0.993726321803044, 192108000000
-0.03174161032244702, 1.1180676075632225, 0.9933682773702026, 192113000000
-0.012861295295571278, 1.0912157727917018, 0.9927633849495803, 192118000000
0.0018283840837961807, 1.0947508786825193, 0.9923452854935632, 192123000000
-0.05509784362444656, 1.0946334941080798, 0.9922697388964954, 192128000000
-0.041047556769278695, 1.0855588857694136, 0.9915576786714994, 192133000000
-0.02838409502011679, 1.0666282619066252, 0.991163531528774, 192138000000
-0.03984559034483459, 1.1438694223647874, 0.990578764520318, 192143000000
-0.035348432557386206, 1.0902776440145248, 0.9907152637880072, 192148000000
-0.03757094194812069, 1.0869675499390925, 0.9900797132226316, 192153000000
-0.02989169821992345, 1.1000111982596021, 0.9901125945586272, 192158000000
-0.03347788324771282, 1.1215603616328291, 0.989756080977576, 192163000000
-0.009093748281265837, 1.1279255816844713, 0.9893518978191712, 192168000000
-0.0014275471712365817, 1.1089791950214978, 0.9887357830558241, 192173000000
0.014174173880352268, 1.0978473506812594, 0.9892195645761813, 192178000000
0.00013196794344513818, 1.1290369874275386, 0.9887093904045458, 192183000000
-0.008867289548676868, 1.0905704325148626, 0.9885491292432058, 192189000000
-0.43689907050726096, 1.0821581156297442, 0.9894973145563966, 192194000000
0.0001719776544889598, 1.0841633231754102, 0.9924230032100826, 192199000000
-0.09918483112590677, 1.0363724624886732, 0.9955891762097181, 192209000000
-0.027736235324728558, 1.1297760094255533, 1.000104107194059, 192214000000
0.008023842096048188, 1.1740772388431475, 1.0029720508803457, 192219000000
-0.003239658478720724, 1.1160528867501964, 1.0062515834537875, 192224000000
-0.0068727103798471335, 1.1501051342138287, 1.0083940972847758, 192229000000
0.011996171234210158, 1.120378959024452, 1.0111353186878493, 192234000000
0.002641717662268033, 1.140353217635179, 1.0126990952490058, 192239000000
0.0291263711525791, 1.1546728048619779, 1.0150006633922357, 192244000000
-0.00892016074673546, 1.1163659844870213, 1.0172610929242747, 192249000000
-0.0194835210242245, 1.1611337793662242, 1.0191015400998233, 192254000000
-0.000288285429696172, 1.1570217889123882, 1.0210874964733516, 192259000000
-0.005491273774900162, 1.1552393148113915, 1.0227398102762142, 192264000000
-0.007768904731315228, 1.1721130807850588, 1.0243258430339568, 192269000000
0.004421493307967525, 1.1548382453392956, 1.0261406595542524, 192274000000
0.005068696361971017, 1.1637186051239354, 1.0272715990167918, 192279000000
0.008777194327336672, 1.1628492167344047, 1.0287493374306893, 192284000000
-0.0020674487963590537, 1.1371477858881274, 1.0306949118352464, 192289000000
0.013473826967499996, 1.1150074208929706, 1.0314084735862576, 192294000000
-0.01909964067151875, 1.1997164312359905, 1.0332200845288924, 192299000000
0.039388413378920725, 1.1404204840188843, 1.0353780968784136, 192304000000
-0.006696909850136143, 1.1686910004583653, 1.036975697103927, 192310000000
0.022254823651579773, 1.1950628734948754, 1.0381526851855476, 192315000000
-0.013583184102843255, 1.1757339842647097, 1.0393407586231749, 192321000000
-0.00905366606073399, 1.1383814202158187, 1.0402392180862632, 192326000000
0.021288338203034, 1.1420923443610311, 1.041576624628347, 192331000000
0.04461277315525696, 1.1886921365700585, 1.0422777488109727, 192336000000
0.02580446508691207, 1.2280860544890562, 1.0429694639306355, 192341000000
0.03886785215818296, 1.193021844554368, 1.0436927717902051, 192346000000
0.0036886258175634033, 1.1395982634171546, 1.044171154745841, 192351000000
0.0013079706667092315, 1.1779511046243805, 1.0448593192252056, 192356000000
0.007486330245657525, 1.1556268031809114, 1.0451148970340163, 192361000000
0.03553588019566313, 1.1737419573035413, 1.0459207420079715, 192366000000
-0.0006650283178876587, 1.1577551679385139, 1.0468569030811208, 192371000000
0.01948371574208714, 1.1530136626025278, 1.0472626841495125, 192376000000
0.003841208968286506, 1.188178649735432, 1.0480611220982146, 192381000000
0.010538592631981364, 1.1635685728866996, 1.0487291557240228, 192386000000
0.022884830608186364, 1.1784927263482363, 1.0494683257975272, 192391000000
0.004302091287663724, 1.1859678600721155, 1.049696264018683, 192396000000
0.056641733487165453, 1.191945403164069, 1.0508086699620725, 192401000000
-0.035995863828750266, 1.1758556644389406, 1.0505492861304921, 192406000000
0.031006570803976126, 1.1509139280265364, 1.0508077498751185, 192411000000
0.00100032723904947, 1.1483503352044568, 1.0505691890657438, 192416000000
0.014513261394766327, 1.2013880136912227, 1.050256392433867, 192421000000
0.041744992223810694, 1.1702044043811435, 1.0498764359132624, 192426000000
-0.0020590598144775048, 1.1673422646680467, 1.0496319353768362, 192431000000
-0.0036955390530129875, 1.1837798552872512, 1.0484818353671375, 192436000000
0.04555033604610128, 1.1601385788975447, 1.0472938888457823, 192443000000
0.0479461250698612, 1.18871868826535, 1.0471156110094633, 192448000000
0.0580290183374564, 1.190966603037797, 1.0459354811189743, 192453000000
0.6737243498850567, 1.311954796008425, 1.0420085043368683, 192458000000
-0.6729886340344583, 1.0759324283992575, 1.0384003499005119, 192463000000
-0.06866209600405623, 1.0931819252422659, 1.0381719629284956, 192468000000
0.5850380776022259, 1.2311374653265565, 1.0353912140940227, 192473000000
-0.0016342135999952434, 1.14971911245038, 1.0323631384200027, 192479000000
-0.019298358728246978, 1.1605698175022263, 1.0292746531955308, 192488000000
0.11293540195319328, 1.2076864740739528, 1.0260448091297927, 192493000000
-0.0445981581923979, 1.0616557343543018, 1.02281083948594, 192498000000
0.0551620786212441, 1.2045750692819914, 1.0199385292569745, 192503000000
0.08659003725469003, 1.1188630769249963, 1.0166497598915598, 192508000000
0.02246258911247549, 1.1422533537970008, 1.0135379303736214, 192513000000
0.06756703788977242, 1.1274737217221473, 1.0105846249995285, 192518000000
0.09842931409200782, 1.0791733086339255, 1.0070403723047503, 192523000000
0.06139626468637575, 1.0777781977702077, 1.0032117831549572, 192528000000
0.04845611704033563, 1.0891112101695934, 1.0000853275842592, 192533000000
0.04409514249321887, 1.078851824708652, 0.9965283690780251, 192538000000
0.029112190690307724, 1.124199051030576, 0.9938257682876824, 192543000000
0.04503010296980538, 1.0963634068465102, 0.9915867961453653, 192548000000
0.10802119109458126, 1.024856169898475, 0.9897279528598494, 192553000000
0.05430622645902052, 1.0606588891493471, 0.987935739175742, 192558000000
0.12470564888890318, 1.034402726545695, 0.9871116789627457, 192563000000
0.032097925914311286, 1.0599556973387232, 0.9857684685067378, 192568000000
0.036690215017997845, 1.0711331261743438, 0.9847164188719875, 192573000000
0.06082808793471256, 1.0424128795943217, 0.9845417733419619, 192578000000
0.003241570364304218, 1.1031909963953557, 0.9848414157767342, 192583000000
0.010381974521565196, 1.0858405271230893, 0.9856353386811734, 192588000000
0.05859705957385509, 1.0811447083331225, 0.9859250695294162, 192593000000
0.03640306476982267, 1.0662381466291586, 0.9870260935736006, 192598000000
-0.017174781544951744, 1.1460060150012008, 0.988108540174252, 192603000000
0.09033979309914587, 1.0628061040196068, 0.9898590893223169, 192608000000
0.032722824999059555, 1.0570844904970806, 0.9911337286079632, 192613000000
0.027393928205658686, 1.1088227404051691, 0.9931611314958261, 192618000000
-0.07632157310359552, 1.189565544031243, 0.9948552734267904, 192623000000
0.06378290403423073, 1.0697055372352087, 0.9974612191835996, 192628000000
-0.053805696702598924, 1.1270910884690692, 0.9991443247685017, 192633000000
-0.020386318566180277, 1.082476798049451, 1.0013501607592585, 192638000000
0.016421499370216513, 1.0615270175513114, 1.003001562753389, 192643000000
0.03326577629806343, 1.0886412035355102, 1.0053616962308383, 192648000000
0.049147590503295355, 1.1054071926250635, 1.007340859694465, 192653000000
0.04445246780823514, 1.077840354944411, 1.008668318530954, 192658000000
0.04000412936358115, 1.0985446885430614, 1.009827660430699, 192663000000
0.004387488633609292, 1.0815698300866539, 1.0105610039709696, 192668000000
0.023996196033798697, 1.0720507838310422, 1.0105396371658326, 192673000000
0.04319948051227454, 1.1010928277343883, 1.0108576531642357, 192679000000
0.008088576202960829, 1.0653960103704538, 1.0107649060854398, 192684000000
0.019460496927552216, 1.0745425439556857, 1.0095773089290774, 192689000000
0.044463807817496814, 1.1042935211059803, 1.0089819974223644, 192694000000
0.025833966222808303, 1.089317821234649, 1.0077950144661367, 192699000000
-0.0001154931246535526, 1.0971833284182537, 1.0073557457367939, 192704000000
0.022350117150414774, 1.1064963295128574, 1.0052969035381987, 192710000000
-0.023706481826970587, 1.0009978617577147, 1.0038382502098897, 192715000000
0.11767565118713978, 1.172837672980013, 1.0026702424744396, 192720000000
-0.014698137743437313, 1.0512484642391913, 1.0019364181116297, 192725000000
0.02200865596261402, 1.0581800294116084, 1.0012205226953506, 192730000000
-0.01852940423695126, 1.0629949285242082, 1.0000922378616275, 192735000000
0.021435454666418677, 1.0751486666725434, 0.9998094244798401, 192740000000
0.006561350644369758, 1.092038174279521, 0.9991553290968491, 192745000000
0.0035972888546931363, 1.0753474219815617, 0.9988288575128914, 192750000000
0.010384681147764785, 1.1027029768680203, 0.9987667897760063, 192755000000
0.007196552943251968, 1.0424997399945322, 0.9982039795958036, 192760000000
0.028848362852842757, 1.0901593810009969, 0.9982576865336154, 192765000000
0.014989024944215449, 1.081202822288753, 0.9982734849949787, 192770000000
0.01090482533575015, 1.0913013629326207, 0.9981901876158358, 192775000000
0.011391416541289178, 1.0729332373082452, 0.9981932475209683, 192780000000
0.015073222705474782, 1.072865672195493, 0.9981310195530338, 192785000000
0.02039240028561911, 1.0695080011329183, 0.9979479817915343, 192790000000
0.0380412756470129, 1.067679174285414, 0.9979571628944319, 192795000000
0.027073850861356923, 1.09672661917945, 0.9976045809151987, 192800000000
-0.0011023602620549074, 1.0659176154748478, 0.9975137510615738, 192805000000
0.04521811738733107, 1.0833569706002184, 0.9976333357784111, 192810000000
-0.00013802767047017307, 1.0808858484520971, 0.9976441250203163, 192815000000
0.015822947109043427, 1.0753981491914375, 0.9980469339413615, 192820000000
0.03042972135208947, 1.0808886570554876, 0.9976963500843087, 192825000000
0.04307738937597676, 1.070832644351468, 0.997546496196803, 192830000000
0.007038589854943644, 1.0728947546583634, 0.9977318637382645, 192835000000
-0.025841142390058407, 1.0488900100249934, 0.9978724270480286, 192840000000
0.01578413814932632, 1.0924540880861906, 0.9979635234093595, 192845000000
-0.009082005976128784, 1.056110634478721, 0.9984346044169159, 192850000000
-0.04430327575386417, 1.066947446588462, 0.9980348284547961, 192855000000
-0.009527359987141885, 1.0813009747600053, 0.9985052475578114, 192860000000
-0.022788501790642596, 1.0977590823974057, 0.9992814019735893, 192866000000
0.0002863717124530849, 1.088056338438256, 0.999406584449109, 192871000000
-0.0006328316766283535, 1.088109153386998, 0.9993717709363291, 192876000000
0.0014304126423407594, 1.0855917167690154, 0.9995430822706317, 192881000000
-0.022633201475795978, 1.0801220074551778, 0.9999326779675842, 192886000000
-0.03341425219838199, 1.0569316737620205, 0.9998753028133839, 192891000000
-0.015213583040697845, 1.0597870548475292, 1.0000075326408107, 192896000000
-0.03452893517724044, 1.1000125345706333, 0.9997708700357816, 192901000000
0.0013415817784545696, 1.1179377392022307, 1.0005038718415096, 192906000000
-0.05070068986689067, 1.0797828864913335, 1.0002193796879528, 192911000000
-0.0060261754158246, 1.0921804299210853, 1.0002930733306392, 192916000000
-0.009825144758255777, 1.0899106017854796, 0.9997641895642901, 192921000000
-0.00232610897671158, 1.0727716976011805, 0.9996870431801904, 192927000000
-0.03760442166502745, 1.079478326234821, 0.9999366006970726, 192932000000
-0.01982741009837812, 1.1021730486520551, 0.9997124959054229, 192937000000
-0.024529814042949044, 1.0471002170612462, 0.9997096378895476, 192942000000
-0.0199544235449041, 1.106498830127861, 0.9992562303546111, 192947000000
-0.03759743365445072, 1.0817550964767402, 0.9999393043673185, 192952000000
-0.0061682807582643315, 1.1046223150705408, 0.9998296925168683, 192957000000
-0.0466123209019547, 1.118391903995942, 1.0000577821225343, 192962000000
-0.031108742734454953, 1.078901764935447, 1.0000331897586587, 192967000000
-0.018552650570888906, 1.1457394679363158, 0.9992400028387584, 192972000000
-0.08164426796868858, 0.9566683716001669, 0.9990467805970812, 192977000000
-0.009738548919978612, 1.059019302624129, 0.9992228086415159, 192982000000
0.000777218685924369, 1.1956279685637234, 0.9984233746954654, 192987000000
-0.049160428857213334, 1.042154168595719, 0.9978500501403157, 192992000000
-0.04250203581523019, 0.9325837817748748, 0.998176306624934, 192997000000
-0.03325038559177587, 1.2184233183475184, 0.997356784324031, 193002000000
-0.02254958507203049, 1.0166993309210215, 0.9962895477506403, 193007000000
-0.036955768440289805, 1.1042027530847423, 0.99526674559054, 193012000000
0.11930886685353684, 1.086599845945635, 0.9945261902921302, 193017000000
-0.12100327226454338, 1.1808381358919418, 0.9943613002464147, 193022000000
-0.09076300396516035, 1.052904653277713, 0.993676092770853, 193027000000
-0.0831484981856165, 1.0530046498513115, 0.9928043491870988, 193032000000
-0.023832464866849833, 1.070611265292382, 0.9918538086050696, 193037000000
-0.0425728609404285, 1.066964474647319, 0.9913732068072834, 193043000000
-0.058665573035691365, 1.1187478240361572, 0.9911434770748505, 193048000000
-0.01178248113220045, 1.0849273170069405, 0.9908841311281485, 193053000000
-0.07781029570120834, 1.0740813714302138, 0.9903112267048444, 193058000000
-0.06457774421700677, 1.0525392845493644, 0.990199831258673, 193063000000
-0.0338133106985066, 1.0689814173922196, 0.9900934393075654, 193068000000
-0.06438391006715581, 1.1131045760860196, 0.9899875555748437, 193073000000
-0.046676703611600256, 1.0998016929312198, 0.9900053264125533, 193078000000
-0.03420773023754165, 1.1038218136569347, 0.9899403735978939, 193083000000
-0.0421130556956279, 1.0877527569953094, 0.9894807259254554, 193088000000
-0.04103092525443135, 1.0928265056810857, 0.9896701975030608, 193093000000
-0.058231496302048553, 1.0841286483039778, 0.9890870320184724, 193098000000
-0.02869699981825223, 1.100522598900551, 0.9891249551063497, 193103000000
-0.04683409540853524, 1.1031816642915697, 0.9893923584115139, 193108000000
-0.06826051544994999, 1.0880128409556924, 0.9889131262826378, 193113000000
-0.09229851915012285, 1.072165402636373, 0.9889191410239875, 193118000000
-0.025905937022535293, 1.0951175155631572, 0.988636319732696, 193123000000
-0.057105175923889584, 1.0662847770134671, 0.9880216378234704, 193128000000
-0.012833933798863113, 1.0894408153351243, 0.9880471623663735, 193133000000
-0.04455648786228391, 1.0946841044567424, 0.9878636878800219, 193138000000
-0.06886776936275668, 1.0689454759667327, 0.9877128353427245, 193144000000
-0.06838631360091985, 1.078796860162989, 0.9874764018702725, 193149000000
-0.05538407785680608, 1.0765339114631842, 0.9877206538719137, 193154000000
-0.051267950944455236, 1.1038920653221238, 0.9871441569250949, 193159000000
-0.04200362866878657, 1.0898157151857224, 0.9873709164586822, 193164000000
-0.08323061780912919, 1.0931160594788596, 0.9874361941499507, 193169000000
-0.07613955818464081, 1.0960886900430757, 0.9874374277886987, 193174000000
-0.04295978253920161, 1.0839628742915486, 0.987455312278511, 193179000000
-0.026473882980377967, 1.064614066217004, 0.9883740147536973, 193184000000
-0.05006940978082537, 1.102035724391234, 0.9875751652863609, 193189000000
-0.08085046165927376, 1.105973275289606, 0.9878953587231379, 193195000000
-0.05660018403024806, 1.117023346141308, 0.9883299341447321, 193200000000
-0.04625645361711361, 1.1167484552266207, 0.9879702130155005, 193205000000
-0.06489597303332614, 1.1121091298036565, 0.9879235832498248, 193210000000
-0.05156349186384213, 1.1295421365716902, 0.9878415178912773, 193215000000
-0.036230038923285766, 1.1086857391795852, 0.9878341181328186, 193220000000
-0.05997292549309277, 1.1116334491230873, 0.9875270740047105, 193225000000
-0.07299313860093115, 1.073187541826481, 0.9874260002243427, 193230000000
-0.04458838154702732, 1.1075536672592898, 0.9873731167369492, 193235000000
-0.052775099833417105, 1.108272944768023, 0.9872855987284138, 193240000000
-0.11683485748426296, 1.083344080099772, 0.987228520957739, 193245000000
-0.04760243037839803, 1.1232185898978682, 0.9871023473693487, 193250000000
-0.05419170791732929, 1.1143846972931901, 0.9872058651171786, 193256000000
-0.03951195358074049, 1.1050833513699705, 0.9872133795715499, 193261000000
-0.4307349934826867, 1.0816447430177787, 0.9899734143444235, 193266000000
0.5720040884538741, 1.1827030173382544, 0.9913170497399411, 193271000000
-0.06041489927314099, 1.0949089160623129, 0.991979021646377, 193276000000
-0.5490691390433587, 1.1366883340752796, 0.9932264069684196, 193281000000
0.22055721162285238, 1.1104617627583862, 0.9959546136380583, 193286000000
0.14078486696022147, 1.1282066467466485, 0.9964316023357739, 193291000000
-0.5236525017867839, 1.097013827809066, 0.9973940797078517, 193296000000
0.15090427769009349, 1.1148483302988568, 1.0010006035718917, 193303000000
0.10406285058456063, 1.1380792818820504, 1.0017103557739118, 193309000000
-0.46435058755418385, 1.0986095349964224, 1.0038966197501125, 193314000000
0.18224287123960184, 1.1625423897532818, 1.0059590474678706, 193319000000
0.16710183798859554, 1.1541384690578251, 1.0069341930841016, 193324000000
-0.47379121192112056, 1.1376386112828196, 1.0082888418349902, 193329000000
-0.07154174336801064, 1.1490058468712918, 1.0100519455859285, 193334000000
0.5379031487581496, 1.1859456416068357, 1.010953930350501, 193339000000
-0.6323767995325937, 1.0850061913742115, 1.0113994871996497, 193344000000
-0.035870095377434116, 1.1265462929108607, 1.0131140875813265, 193351000000
0.37546140873867784, 1.1903194062055666, 1.013493485043019, 193356000000
-0.42770281445507546, 1.1466444341609532, 1.0142449107920621, 193362000000
-0.13123598242203224, 1.1428587603897615, 1.0161171846650079, 193369000000
0.10983715217684636, 1.1702865563615605, 1.0151384725029153, 193374000000
-0.15482526868288224, 1.1428070504139316, 1.0165551764728522, 193379000000
0.2945463166456251, 1.1559552070675307, 1.017132239393209, 193384000000
0.24458911416648352, 1.1543384833478634, 1.0159326124942225, 193389000000
-0.6280106154892416, 1.1512587462305715, 1.016631028975135, 193394000000
-0.015399434128890603, 1.1453499423926103, 1.0176322363763401, 193399000000
0.4874632584623212, 1.1720283853512339, 1.018114574720938, 193404000000
-0.4257140278804364, 1.1511743482702865, 1.016746765901099, 193409000000
-0.1087807372349404, 1.1152516539565915, 1.018294871900735, 193414000000
0.3194281027443414, 1.0947118198325445, 1.0192477056214746, 193420000000
-0.7354914442257049, 1.318165038471346, 1.0200180592859547, 193425000000
-0.1077483645853013, 1.0062040415962688, 1.0215650695542031, 193430000000
-0.006396317960415409, 1.1637991505471008, 1.0242979532133558, 193435000000
-0.011706681942522687, 1.1897353874742258, 1.027571576071727, 193440000000
-0.05592567031396112, 1.1855684695217994, 1.0295507216875377, 193445000000
-0.10125784853479321, 1.113039295092975, 1.0305698212550747, 193450000000
-0.03360503761438382, 1.1773588034627498, 1.0331864528479422, 193455000000
0.021884797312364587, 1.2056200921216995, 1.0344936946916732, 193460000000
-0.009925525665958055, 1.1520362982058456, 1.0363233292736425, 193465000000
-0.056177978446185765, 1.1680213927294576, 1.0384389871416373, 193470000000
-0.01479439609000904, 1.1376269085338975, 1.0395885937054694, 193475000000
-0.05674421510853052, 1.1661591241384637, 1.0409717398445257, 193480000000
-0.04764936006863017, 1.1609884631123089, 1.042776215887069, 193485000000
-0.0015269905795998618, 1.169219990123467, 1.0444145057369578, 193490000000
-0.023307817490656794, 1.1936315963092818, 1.0463754157285112, 193495000000
0.7495928602922614, 1.204821433380341, 1.0462289233314341, 193500000000
-0.6602436362107914, 1.1409239221945886, 1.0439978441269682, 193505000000
-0.10726804509201415, 1.1324238492699616, 1.0449602616968547, 193510000000
0.6107258849627804, 1.2093929669783214, 1.0422051046535523, 193515000000
-0.029754535542446073, 1.1697967566497263, 1.0389401621770946, 193520000000
-0.7511269381478858, 1.0820661830775133, 1.037508688793101, 193525000000
1.06193742012972, 1.1971919942123672, 1.0369633485482674, 193530000000
-0.11303667150608707, 1.1375990235786069, 1.0334409766052266, 193535000000
0.046730641063891055, 1.131123210716389, 1.0295642813791943, 193540000000
0.04048866997080096, 1.1666055201139265, 1.0271216500423157, 193545000000
-0.04341899018178032, 1.1522985214174455, 1.024201890260404, 193550000000
0.0008920424091363038, 1.1191193796420216, 1.0215824941134515, 193555000000
-0.05928320967854036, 1.1146770100403705, 1.019649195880117, 193560000000
0.20391955846481824, 1.1054301038820875, 1.0166136887388553, 193566000000
0.09291897602760431, 1.1301867903833909, 1.0121230371638523, 193571000000
0.0506059120322178, 1.1149171510126072, 1.0081668445430816, 193576000000
0.01995624411755673, 1.1269898602768695, 1.0023974816344343, 193581000000
-0.001578421501684614, 1.1107219534227255, 0.9992443881053586, 193586000000
0.018152768428154872, 1.1423709457361977, 0.9949899586969243, 193591000000
0.031970826418583564, 1.0919184665453965, 0.9917572140580803, 193596000000
0.0037951502117108144, 1.1092874972006215, 0.9894111566649295, 193601000000
0.023797416951961636, 1.103841889774934, 0.9874901890299034, 193606000000
0.018359436247543836, 1.0791548445473014, 0.9869681672909255, 193611000000
0.03125586851661695, 1.0841610587032542, 0.98697727438445, 193616000000
0.012352154815912427, 1.098515773130308, 0.9883587307853269, 193622000000
0.01988410606971106, 1.090404164086298, 0.9902235976898762, 193627000000
0.018528843942092237, 1.1142833955984526, 0.9925768598169591, 193632000000
0.008922395565325396, 1.1106737548060759, 0.9946085537001668, 193638000000
-0.01075842982514966, 1.0788757695265412, 0.9988775741979403, 193643000000
0.029496790821303496, 1.0854946205435188, 1.0012808657834733, 193648000000
0.05395873815481858, 1.0911557162127514, 1.0041662062026309, 193654000000
0.03241445340278787, 1.0911056032947926, 1.005929345045071, 193659000000
0.03252332921257283, 1.0770551232315888, 1.0072812873334207, 193664000000
0.010311991806681166, 1.082948587529483, 1.0080700768603321, 193670000000
0.04607750660150804, 1.0878947895204247, 1.0080784995779757, 193675000000
0.020977437427502653, 1.080728672142383, 1.007482685812412, 193680000000
0.0251652296678827, 1.0930779744606502, 1.0061128802582286, 193685000000
0.021415219038085347, 1.0912156537196325, 1.0050973564347336, 193690000000
0.027790332569386955, 1.1060971327609628, 1.0031996734971236, 193695000000
0.0585153707557788, 1.0870790254186888, 1.0014139033542107, 193700000000
0.006973550621442153, 1.0877552504433747, 0.9997031448778877, 193705000000
0.03915615904233917, 1.0812677875032837, 0.9977488273730445, 193710000000
0.06322117765536298, 1.0832886147251968, 0.9964665776474475, 193715000000
0.014699740416423523, 1.0752241312494335, 0.9958277726110945, 193720000000
0.03325298414570604, 1.0824221597292691, 0.9950711590133834, 193725000000
0.06697167934064918, 1.069071752856629, 0.995307084025265, 193730000000
0.02911652474996586, 1.0565499920133639, 0.9953630353993621, 193735000000
0.02139076565240491, 1.0378287520831935, 0.995917250606568, 193740000000
0.041045605980185584, 1.0837056536489036, 0.9963202324164991, 193745000000
0.0907983390680787, 1.0446989318767883, 0.9974240167906343, 193750000000
0.09456149394962685, 1.0796461870306615, 0.9975097495734493, 193755000000
0.006230184424034244, 1.124405195677503, 0.9982588246657859, 193760000000
0.05882329007092995, 1.0709265323305253, 0.9983858051232992, 193765000000
0.05140048811688841, 1.03252096862392, 0.998437756923648, 193770000000
0.05262139454930685, 1.060500328828415, 0.997563376484174, 193775000000
0.05717112884673486, 1.0554897048620655, 0.9967515196204799, 193780000000
0.02680504160544944, 1.089487922294117, 0.9956622565276694, 193785000000
0.07718664142312139, 1.0589424351164252, 0.994526778664488, 193790000000
0.032606233776960834, 1.045324541135665, 0.9923968589168592, 193796000000
-0.07739104866521664, 1.1160337800861773, 0.9911829402465963, 193801000000
0.030021870671124735, 1.0442544260062778, 0.9893355935385475, 193806000000
0.03999194705773744, 1.1500759413426882, 0.9881611676839311, 193811000000
0.13134666749598173, 1.0716623301651083, 0.9867007929404745, 193816000000
-0.06427533794234239, 1.1032106478586272, 0.9859153582789485, 193821000000
0.1064223977572901, 1.0726193914902062, 0.9846402917361602, 193826000000
0.07991691464079093, 1.0889238198387032, 0.9834408931380776, 193831000000
0.026996425670911567, 1.0617178508990774, 0.9822870442073978, 193836000000
0.14295813276641997, 1.0339852988539702, 0.9810288239556043, 193841000000
-0.05721212630852874, 1.1402136692080453, 0.9806001130498646, 193847000000
0.07782267901297103, 1.0556735996658124, 0.9798051746028009, 193852000000
0.01574534489337952, 1.0013004467272422, 0.9789219257762749, 193857000000
0.022498432678133458, 1.014654611141125, 0.9786722636414513, 193862000000
0.06463135161275226, 1.027943284577818, 0.9782544033281314, 193868000000
-0.09501232492816528, 1.1018685716305774, 0.9783507018551759, 193873000000
0.0964402673020282, 1.042635746752427, 0.9778384131163627, 193878000000
-0.08537696953285161, 1.0830821195653273, 0.9779797505146938, 193883000000
0.004731108608934102, 1.0797974671167987, 0.9782435069528442, 193888000000
0.038529904782880736, 1.0036395579464108, 0.978805517179499, 193893000000
0.04231153583649172, 1.041904368668452, 0.9794164813332396, 193898000000
0.008968048709090695, 1.0328322015611417, 0.9792902734686048, 193903000000
0.054695116059983256, 1.0390384349615844, 0.9801512310813826, 193908000000
0.03826955114844517, 1.036039135386995, 0.9806816642005156, 193913000000
0.04579398116734905, 1.0571725011777553, 0.9809647121542457, 193918000000
0.03610657339959549, 1.0509187567394622, 0.9812454716026247, 193923000000
0.0627567373207607, 1.0272277909472534, 0.9820433585538473, 193928000000
0.041934047089710894, 1.0526677514189393, 0.9822763932631777, 193933000000
0.044806848627500374, 1.0825028197553597, 0.9830380362896156, 193938000000
0.05921833582369592, 1.0654847139146368, 0.9832102673889314, 193943000000
0.035739295664736506, 1.037407234982638, 0.9834487543363742, 193948000000
0.03822355385385445, 1.045687488536979, 0.9841576030894088, 193953000000
0.030225649978733685, 1.052432767933469, 0.9844680766597895, 193958000000
0.037668937494014995, 1.070267889723016, 0.9848240117878442, 193963000000
0.044617699406842584, 1.0680512798679478, 0.9851886790078548, 193968000000
0.040868745042786474, 1.070042108350347, 0.985519588640961, 193973000000
0.06770460459201813, 1.0612834864303864, 0.9857340887106878, 193978000000
0.04422960992128956, 1.0374387232864635, 0.9860837908352484, 193983000000
0.0390467621076457, 1.0718127759434708, 0.9860285934085594, 193988000000
0.055613677765916185, 1.0430755615000231, 0.9862670342724276, 193993000000
0.007061489545616771, 1.0669448932012109, 0.9858912229989993, 193998000000
0.021940046425518826, 1.0724529694841174, 0.9864411986259032, 194003000000
0.020345405272590242, 1.0358581572846415, 0.9868797612112067, 194008000000
0.04203404019526628, 1.0258171307365977, 0.9870021977294718, 194013000000
0.01733776095122401, 1.0299142272071997, 0.9871585200084038, 194018000000
0.03444054228627764, 1.049403555104698, 0.9873901706917928, 194023000000
0.03760867155208034, 1.0589627166372682, 0.9871037811682055, 194028000000
0.06594153161768032, 1.0393980295947982, 0.987314762110326, 194033000000
0.05786711523904951, 1.0120919253484002, 0.9877107713271638, 194038000000
0.07527264878860801, 1.0467664539559771, 0.9879337072437062, 194043000000
0.021549982642943322, 1.0539161194051867, 0.9881142822171516, 194048000000
0.06113597504177079, 1.0105593302359939, 0.9883582718223256, 194053000000
0.03474285247048126, 1.0450557557840634, 0.9885228566534563, 194058000000
0.041216482630302295, 1.0453120554187345, 0.9887873499296594, 194063000000
0.02893448258549018, 1.0303071280290343, 0.9891736872191003, 194068000000
0.05961659195022796, 1.0641690589321755, 0.9888372467077269, 194073000000
0.01612260011956189, 1.0632801233621245, 0.9888173148049677, 194078000000
0.012852266057569447, 1.1080526387301866, 0.9891350618382502, 194083000000
0.03491752869940412, 1.074044341304235, 0.9891634813778726, 194088000000
0.0601554329878614, 1.0551304560866124, 0.9895814993307888, 194093000000
0.046166169429556835, 1.0354406160607263, 0.9894324309559218, 194098000000
0.012073495092139043, 1.0559507712796752, 0.9896020595265085, 194103000000
0.033820887856524824, 1.0534409123453903, 0.9899396825696679, 194108000000
0.023437723221310887, 1.016426584450287, 0.989981800373035, 194113000000
0.027047028237705755, 1.0365029295388823, 0.9900708813865101, 194118000000
0.03639977319546821, 1.0845265844284562, 0.9902347266840053, 194123000000
0.02185676389006548, 1.0568243705092673, 0.9903914010963004, 194128000000
0.03935006087973593, 1.0464884953718225, 0.9903884072508182, 194133000000
0.031283473775306166, 1.0752713062268466, 0.9901513201405621, 194138000000
0.026496964804186136, 1.0306653533720889, 0.9901682363175438, 194143000000
0.03254934740476676, 1.0645319348615578, 0.9903501196126554, 194148000000
0.04238807670543182, 1.0437526937606116, 0.9906822964760877, 194153000000
0.013203461555353561, 1.0674836330072008, 0.9900007083695963, 194158000000
0.025276486846033088, 1.0364382688303948, 0.9900644350230385, 194163000000
0.0337607866464411, 1.0664442108592622, 0.9898478740188967, 194168000000
0.03269389523150191, 1.0588564982825182, 0.9898274044966722, 194173000000
0.04310975928547705, 1.0265369716235335, 0.9895383448804995, 194178000000
-0.0023558959983621813, 1.0648112766572735, 0.9899148906596213, 194184000000
0.025827595104960393, 1.0582151817732348, 0.989460782656989, 194189000000
0.02295775737726791, 1.0675973480283585, 0.9894566315817712, 194194000000
0.03935781475261308, 1.0804791020554516, 0.9897196880759362, 194199000000
0.022177167340894643, 1.0274943705960145, 0.9891614195004881, 194204000000
0.04612163750832328, 1.055428483085973, 0.9896335378119523, 194209000000
0.04004830011245314, 1.033659835459196, 0.9895278502141214, 194214000000
0.04550366024510317, 1.057810913078758, 0.9898210741609302, 194219000000
0.045210924502672514, 1.0915199949235344, 0.9896875611106389, 194224000000
0.016431630329813728, 1.0905681583055675, 0.9900918278190963, 194229000000
-0.02824844756152499, 1.0782797840065863, 0.9898499725623305, 194234000000
0.016187059076785897, 1.0768231656014458, 0.9895540613956946, 194239000000
0.03849317342358288, 1.0994391878837215, 0.9900171298423928, 194244000000
0.0053141896080305916, 1.0730676256334744, 0.9896539296303383, 194249000000
0.05521408218060244, 1.0747004416689443, 0.9900124293346825, 194254000000
0.023735106766815044, 1.0388755070245885, 0.9894555890013639, 194259000000
0.031784246034374, 1.067676669431542, 0.9893891627302484, 194264000000
0.037230475940166166, 1.074853304695194, 0.9890144382685102, 194269000000
0.02862984986575564, 1.05927352259041, 0.9890425829076632, 194274000000
0.043356466096410196, 1.0526950486762612, 0.9884998911441115, 194279000000
0.002850796135124515, 1.0698698636030357, 0.9883344550920165, 194284000000
0.0073415621995866365, 1.0468939604556102, 0.9881723985853749, 194289000000
0.02883455349649057, 1.080217621469043, 0.9884732561304608, 194294000000
0.02236536126375991, 1.0816306678179919, 0.9883828809520847, 194299000000
0.04573498085772349, 1.0518118409827155, 0.9884710652954699, 194304000000
0.039280545700230284, 1.0559391096723287, 0.9885910086002866, 194309000000
0.029939106164849433, 1.0919320689100451, 0.9881383442404529, 194314000000
0.011494296418317123, 1.0453345527731384, 0.9888534719231208, 194319000000
0.021840131572359436, 1.0368233332365684, 0.9888862356264755, 194324000000
0.03982296085559758, 1.0633656543733898, 0.9889105037117938, 194329000000
-0.01878013017304199, 1.0757369746998298, 0.9887791035263372, 194334000000
0.015506968320927364, 1.0718392512532655, 0.9888110039650755, 194341000000
0.029734261316196053, 1.0832512126484999, 0.9886253764588369, 194346000000
0.014904569897840777, 1.0444371521037, 0.9883068767398877, 194351000000
0.0027135658823820696, 1.0231485161586094, 0.9883231153858312, 194357000000
0.009781895975306192, 1.0546859778429314, 0.9881739604070227, 194362000000
0.039602171369259295, 1.0658620097582743, 0.9881436662001639, 194369000000
0.022637467178287775, 1.0627151426344437, 0.9877324578076658, 194374000000
0.010153964808883678, 1.1029200120363702, 0.9873562370617265, 194379000000
-0.0051841675749305805, 1.061158039080183, 0.9872876330497984, 194384000000
0.020978869017934356, 1.0690264328051993, 0.9871880461388507, 194389000000
0.011534660485604848, 1.077693207731603, 0.9868372786840152, 194394000000
0.004182103625954749, 1.0770182049325243, 0.9871688909557758, 194399000000
-0.02048915348330352, 1.0851884941661516, 0.9865539560181416, 194404000000
-0.021925170607131075, 1.0985926761320801, 0.9870490620677589, 194409000000
-0.00927553525391732, 1.0873804645914051, 0.9871964802878768, 194414000000
0.02500159175220875, 1.0815957634691267, 0.9868265270026414, 194419000000
-0.013461294831466176, 1.1231823478806822, 0.9871210959149727, 194424000000
0.007892860186856351, 1.069386330885695, 0.987071731162508, 194429000000
-0.039678526031387135, 1.054869545674909, 0.9873386170258915, 194434000000
0.047156006048521895, 1.1102516969328373, 0.9874058448228213, 194439000000
-0.02847991968015929, 1.0966262977327939, 0.9873639587776942, 194444000000
-0.01006898021059149, 1.1103775679275876, 0.9873880397836282, 194449000000
0.03512339421720944, 1.0967106689304966, 0.9872192785318464, 194454000000
-0.01915764888753591, 1.0505663258026088, 0.9870940984624801, 194460000000
0.01538159414834915, 1.0894180023017002, 0.9867042628885482, 194465000000
0.005591885706279399, 1.0840672246381733, 0.9865269122595253, 194470000000
-0.003467291370497309, 1.0914447461769141, 0.986199094758538, 194475000000
0.016893675716273794, 1.0927564204923905, 0.9860481239628137, 194480000000
-0.02465857792347964, 1.0885291523002107, 0.9862009609061739, 194485000000
0.03221743738171977, 1.1086456434550302, 0.9860995343415206, 194490000000
0.018031519886108762, 1.0878656385480348, 0.9858675414881642, 194495000000
0.026652108914620505, 1.078449777146696, 0.9854268819603178, 194500000000
0.08413077710438681, 1.109986186205813, 0.9855844840183846, 194505000000
0.013420202865876179, 1.214778044662395, 0.9857678470715816, 194510000000
-0.0671503517764538, 1.0305515352954047, 0.985906604988772, 194515000000
0.04180959382891867, 1.0705512665563266, 0.9856237280640798, 194520000000
-0.019736211109586007, 1.0220798877976893, 0.9861584225757702, 194525000000
-0.030637837503717465, 1.0874478576443338, 0.9858225211271889, 194530000000
0.032761668007851345, 1.0803088534968972, 0.9858989462842587, 194535000000
-0.028558727850061624, 1.046819091745844, 0.9856203046023433, 194540000000
-0.16030326205841836, 1.1845287550384722, 0.9864270857689323, 194545000000
0.1109203584453072, 1.0615846661144779, 0.9858763470022083, 194550000000
-0.03648560310690526, 1.106739186411738, 0.9861745889388898, 194555000000
-0.03558683646062047, 1.0902337614227116, 0.9862427816025027, 194560000000
-0.0008077503825186794, 1.0864401871978329, 0.9864595799571315, 194565000000
-0.12612682388544522, 1.1089060993645259, 0.9861072737348527, 194570000000
0.08116772991159533, 1.0619585337606023, 0.9864966392778521, 194575000000
-0.04168199338802463, 1.069433260227421, 0.9864111522537846, 194580000000
-0.020472466127513498, 1.119482461335341, 0.986155501186681, 194585000000
-0.01835084450024623, 1.0935794501822012, 0.9860803684184545, 194591000000
-0.030141968222866786, 1.131927114777123, 0.9862867854812352, 194596000000
-0.04241737212636611, 1.1110830870007613, 0.9862068040780262, 194601000000
-0.020106062421715087, 1.094652330417373, 0.9864611313427638, 194606000000
-0.020577876116293553, 1.1444288200967303, 0.986437546620625, 194611000000
-0.03183894762106168, 1.112670381280879, 0.9870687552655836, 194616000000
-0.039215610542736444, 1.0838257431005756, 0.986734458702308, 194621000000
-0.015573665200405248, 1.1197253926726607, 0.9867454392275586, 194626000000
-0.4250316871244566, 1.0815684296138466, 0.989136612936112, 194631000000
0.5078303232482608, 1.1317304188494557, 0.9905676800633889, 194636000000
-0.09157753969052326, 1.129005263257874, 0.9908842700608894, 194641000000
-0.42500580197366655, 1.1203255620497603, 0.9931740493099206, 194646000000
0.4378334400030828, 1.2020474480075303, 0.9941227250216826, 194651000000
-0.4166548768540412, 1.0562393791443354, 0.9944025760770225, 194656000000
-0.14479433482039641, 1.099150633489746, 0.9968582663546705, 194661000000
0.33795868768279463, 1.1193913909839148, 0.9990224738475505, 194666000000
-0.4298581248255301, 1.083409731128702, 0.9998072691816358, 194671000000
-0.19031237992592545, 1.2013024568108157, 1.002721421973247, 194676000000
0.15592071996852874, 1.0716426528881715, 1.0034089968316422, 194681000000
0.024894209079620915, 1.1175690128338545, 1.0055038259902973, 194686000000
-0.08370736735944755, 1.1261451764831207, 1.0075449057291137, 194691000000
-0.16617791611009852, 1.2361814489989476, 1.0104077096066306, 194696000000
0.1360368291652038, 1.0578615722699818, 1.0125466887168393, 194701000000
-0.0483534038531677, 1.1382564624385139, 1.0142248577089716, 194706000000
-0.335102213652469, 1.2614312371488323, 1.0157162010901006, 194711000000
0.023983502629614, 1.1566649405064529, 1.0175953954727333, 194716000000
0.1366144525117259, 1.016760021515728, 1.0188540566088558, 194721000000
-0.31813564132559297, 1.2890738421903014, 1.0204185402276846, 194726000000
0.14066940956577387, 1.1248814975402526, 1.0229966094171903, 194734000000
-0.004057892850634796, 1.069000838427715, 1.023721243458674, 194739000000
-0.3184281727842365, 1.2565053599062321, 1.0251108072256072, 194744000000
0.09706400440716544, 1.1669345914468006, 1.0264488911348915, 194749000000
0.0976362180150461, 1.0594479054842092, 1.027399880349391, 194754000000
-0.3993653863648894, 1.30667200289083, 1.0278294275630997, 194759000000
0.053382033943737375, 1.1882201480195937, 1.0287806935135888, 194764000000
0.19843936848313898, 1.042662460943291, 1.0297369031236343, 194769000000
-0.2659428196901751, 1.3038662955885545, 1.0306799607274129, 194774000000
0.06148877435485155, 1.1354396536520492, 1.0316179343219867, 194779000000
0.16126880863711104, 1.0288558761270945, 1.0319068661704378, 194785000000
-0.2159160747862829, 1.2507833437617455, 1.0328561269729555, 194790000000
0.05612155967728091, 1.192122426504772, 1.0337044649124256, 194795000000
0.020744455006632846, 1.1609786580408092, 1.0337451657847736, 194800000000
0.12189830395972029, 1.0712802162540784, 1.0345319314662975, 194805000000
-0.2810540953351658, 1.2246293405796451, 1.0348637509174914, 194810000000
0.6572945870963346, 1.0917718101864728, 1.0319046411039563, 194816000000
-0.3900632572688491, 1.1247872527538323, 1.031821188641543, 194821000000
0.4258704911243305, 1.227941077309775, 1.0293464718626173, 194826000000
0.0747796129879198, 1.130712902603598, 1.0261630847706382, 194831000000
-0.00848323211625144, 1.1591584606589074, 1.0228141555461003, 194837000000
0.0021630231426010664, 1.0826422882467552, 1.0192063992798928, 194842000000
-0.10793091718994752, 1.1107005937660543, 1.0159913702484156, 194847000000
-0.043693755196326026, 1.0996987228211652, 1.013539975765361, 194852000000
0.033111118244051274, 1.2250316930055354, 1.0099650475059816, 194857000000
0.1674628372795672, 1.0985553389815295, 1.0083976135868027, 194862000000
-0.011254317141658747, 1.0343595857083556, 1.0067133954530612, 194867000000
-0.018004805897090307, 1.1580641365594446, 1.0036525299700794, 194872000000
0.05386327572669386, 1.0962158062720178, 1.0018631729043788, 194877000000
0.12927146768486505, 1.1259343696878255, 1.0000663998038393, 194882000000
-0.2894894740308823, 1.1579782454065195, 0.9978600389993504, 194887000000
0.05933388537863556, 1.0946393262525906, 0.9960854999348121, 194892000000
0.15311201961317428, 1.1371977705291327, 0.9951141144650675, 194897000000
-0.2053252615221839, 1.148730959752869, 0.9930941926071891, 194902000000
-0.025980627232954828, 1.1020872738550211, 0.9917728129153197, 194907000000
0.0482838817684735, 1.0120855772079729, 0.9911208468808897, 194912000000
0.13997696868544232, 1.2040856751216709, 0.9898147334343991, 194917000000
-0.22475992395847322, 1.0184356209056533, 0.9879996898301161, 194922000000
-0.06125152579358157, 1.1025300862324878, 0.9867548644272794, 194927000000
0.07963575210271795, 1.0626288693172048, 0.9859825309351604, 194932000000
0.03675565065152104, 1.1440915923407988, 0.9851028445356713, 194937000000
-0.10564487852967933, 1.0853969190790285, 0.9840373790404643, 194942000000
-0.04269007911469525, 1.0644599997466604, 0.9828228725182363, 194947000000
-0.0193448298989753, 1.1057639879231216, 0.982327211868928, 194952000000
-0.021428283080500612, 1.1466075028021945, 0.9818973844835479, 194957000000
-0.007903189090418176, 1.0995643053240993, 0.9809326872649203, 194962000000
-0.010035031051764502, 1.047858339564187, 0.9809551725725119, 194967000000
0.028940686017412592, 1.0858209416959024, 0.9804619591276649, 194972000000
-0.022626644826779934, 1.1021340106796707, 0.9799832794971871, 194977000000
-0.03076945322690667, 1.1081352253592502, 0.9794476647169378, 194982000000
-0.028311895734652717, 1.0523689875491469, 0.9794020504157919, 194987000000
0.013267215688034193, 1.1105529567839192, 0.9797305446755162, 194992000000
-0.011455028133652926, 1.0777027078394426, 0.9787125459958864, 194997000000
-0.0007295139805055173, 1.1016685488992795, 0.9790080678124293, 195002000000
-0.014819093565354234, 1.0486047250358017, 0.9789996860935577, 195007000000
0.004770439835343631, 1.082093409987321, 0.9786776169071176, 195012000000
-0.01335226181831963, 1.049803152093497, 0.9783884147541703, 195017000000
0.0017208030440899512, 1.0512392077293422, 0.9785002835189349, 195022000000
-0.024316147210234375, 1.0604708109395802, 0.977857368740642, 195027000000
-0.005621556372323592, 1.0795751724990905, 0.9778158371615451, 195032000000
0.015033401277655572, 1.0421998742043865, 0.9773842416911512, 195037000000
-0.0002790143536031621, 1.0677299745332594, 0.977072557378918, 195042000000
0.003209472704853231, 1.075293608739531, 0.9764191706968512, 195047000000
0.0027210497732972697, 1.0739483643284196, 0.9764217404206994, 195052000000
-0.003305604805466984, 1.098587680444418, 0.9760852918183568, 195057000000
-0.022571053982583675, 1.0692015355882205, 0.9758505839681371, 195063000000
-0.00800778064969857, 1.0942154316037842, 0.9756586692237713, 195068000000
-0.0038613379460217217, 1.0680408848013767, 0.9753636697377063, 195073000000
8.778254887104129e-05, 1.0666797109817348, 0.9755404052859655, 195078000000
0.018412380383398538, 1.0685986304189883, 0.9752667492567973, 195083000000
-0.03583314864963384, 1.045161004876924, 0.9750457104235458, 195088000000
-0.025231318393508714, 1.0515483978875677, 0.9750964489411629, 195094000000
-0.03370255405824429, 1.0425026416347571, 0.974983732071588, 195099000000
-0.020840975670141346, 1.0480636285228033, 0.9751162531462886, 195104000000
-0.012915115173520054, 1.0568042272628733, 0.9750503440857222, 195109000000
-0.016002818601817834, 1.0383519654311264, 0.9752764210355302, 195114000000
-0.015127628186956397, 1.0673490292015162, 0.9748954099858339, 195120000000
-0.009850491621675509, 1.0467074219709145, 0.9746905304595822, 195125000000
-0.0004688124898307106, 1.0842559325402974, 0.9745406161439683, 195130000000
0.04010589591675395, 1.0791047159629237, 0.9743604229659208, 195135000000
0.004089478079088993, 1.064109986990472, 0.9743479339283684, 195140000000
-0.017689972165239383, 1.0688225694328568, 0.9739577090650869, 195145000000
-0.028815484078387, 1.1012234464296293, 0.9739941012556059, 195151000000
-0.0033965393554770285, 1.0238800188691497, 0.9736509101963882, 195156000000
0.00018505056743300767, 0.9810995306532319, 0.9741837331747372, 195161000000
0.019442912255003504, 1.004078405860591, 0.9744025729258302, 195166000000
0.01664341928049133, 1.0206659641924296, 0.9751205290452396, 195171000000
-0.0049135842781924104, 0.996619172771695, 0.975991137755386, 195176000000
-0.010542575557994423, 0.9906119630020281, 0.9768861594435846, 195181000000
-0.040179690181941105, 1.0102286500004478, 0.9779716960902717, 195186000000
-0.041426136848936826, 1.0292875101174894, 0.9795165912170769, 195191000000
-0.014875851066468125, 1.080974872527461, 0.9805282749133135, 195196000000
-0.016660468737379995, 1.0847229993192053, 0.9820845964396296, 195201000000
-0.026683438453095915, 1.0621918152784668, 0.9829213319177903, 195206000000
-0.02113742142497109, 1.0599274408109385, 0.9845060104544964, 195211000000
-0.011238667996370844, 1.063682546897095, 0.9853846081783291, 195216000000
-0.03539913240864992, 1.054618558627326, 0.9861601546527219, 195221000000
-0.013338382750214631, 1.0535996280531803, 0.9868792056277258, 195227000000
-0.01627300085489949, 1.1017496463518712, 0.9880590070761363, 195232000000
-0.008852895739489396, 1.0888106379804963, 0.9885561464503824, 195237000000
-0.006284641377128305, 1.0686897897083576, 0.9893372726572044, 195242000000
-0.012066661042873898, 1.1259032661939463, 0.9897832289002925, 195247000000
-0.0027398523658828423, 1.1525672474365816, 0.9904764145466289, 195253000000
-0.005430704562493811, 1.0912440167441921, 0.9911929635967378, 195258000000
0.0037913464117167416, 1.073572991863441, 0.9910295375008389, 195263000000
-0.033718023022660804, 1.0522729165789444, 0.991291743004989, 195268000000
0.01306684874670809, 1.0877422178943164, 0.9917539714200082, 195273000000
0.009073548179342819, 1.072035469475772, 0.991783225386351, 195278000000
-0.041349244073620325, 0.9530392503162906, 0.991550915150426, 195283000000
-0.017380118762922434, 1.000780856835339, 0.9919376369484167, 195288000000
-0.013205573005220343, 1.0811106295705841, 0.9915714446917611, 195293000000
-0.010983664404860143, 1.0814703388449804, 0.9922316862162651, 195299000000
-0.004771034298149103, 1.0683992363734385, 0.9922775635707429, 195304000000
0.002352459645440761, 1.0799777101558188, 0.9922248616854722, 195309000000
-0.027894141321177998, 1.105340605528693, 0.9928877961764863, 195314000000
-0.009939476761931413, 1.0773145350822648, 0.9925361114398139, 195319000000
-0.02011454428075054, 1.076017761185581, 0.9924110755031204, 195324000000
-0.030719412831563736, 1.055139641965017, 0.9930016535425724, 195330000000
-0.04320382173215996, 1.0613129217536001, 0.9928654989547824, 195335000000
0.001083608951391011, 1.0745061322379352, 0.9932718806987214, 195340000000
-0.03319572765560189, 1.0889516663905343, 0.9931081665554921, 195345000000
-0.02378204708221248, 1.0727484501161488, 0.9936181130978499, 195350000000
-0.006903020722623568, 1.06347615095367, 0.9938549458027431, 195355000000
-0.018668908488188585, 1.0523651674155274, 0.9937234260962029, 195360000000
-0.03745284565423582, 1.0867630476412102, 0.9936873587453375, 195365000000
-0.05188398105324181, 1.0882383137947824, 0.9938947944217198, 195370000000
-0.025422198916734334, 1.0887338815457155, 0.994364179454384, 195376000000
-0.04083605898130156, 1.0546759113990107, 0.9940208399273857, 195380000000
0.008166109598993783, 1.077555092291001, 0.994285350963695, 195385000000
-0.06410810962437684, 1.0729387505501156, 0.9941610878989381, 195391000000
0.014688964457521304, 1.0836270985930974, 0.9941448276354372, 195396000000
-0.005991774303663464, 1.069556555964984, 0.9940038171198468, 195401000000
0.05109092789800948, 1.1072460530630963, 0.9935436715332777, 195406000000
-0.08332584779932452, 0.9928848402422231, 0.9929504508374823, 195411000000
-0.07361255238674697, 1.1062496353842415, 0.993091561371549, 195416000000
0.018123198270767915, 1.0924722053757765, 0.9926442691305198, 195421000000
-0.05374419230542793, 0.9397577694953486, 0.9919040571820027, 195426000000
-0.003173972962104513, 1.1567338540972745, 0.9916899522814878, 195431000000
-0.06078800171297358, 1.0559461633503902, 0.9908395026153597, 195437000000
-0.09507718199967373, 1.0444266035743857, 0.9909467995224277, 195442000000
0.00956205093530501, 1.1174694781760939, 0.9910039173291849, 195448000000
-0.08123109082309946, 0.9647541832520393, 0.9905489138237644, 195453000000
-0.022732750714736863, 1.176594348644996, 0.9903062093738781, 195458000000
-0.042079764540133784, 1.0890265045828667, 0.9901814356836539, 195463000000
-0.03841806887737455, 0.9831477614909234, 0.9898214773501091, 195468000000
-0.037548502051180814, 1.1650375797785637, 0.9898268862834494, 195474000000
0.004970169910808911, 1.1054134006713912, 0.9896225288630078, 195479000000
-0.06945711223672853, 1.0343261462396565, 0.9896789385701804, 195484000000
-0.13484641369391004, 1.0328315213624064, 0.9897327240406192, 195489000000
0.10011542194443725, 1.1275820070637697, 0.9893104955034953, 195494000000
-0.02281662371029434, 1.069306824448912, 0.9889873988199567, 195499000000
-0.05008425530157824, 1.0734018735821367, 0.9889327377873354, 195504000000
-0.04282324923871356, 1.0394935244520846, 0.9882675602879237, 195509000000
-0.1124383035150584, 1.1196870882088548, 0.9887572901743269, 195514000000
0.09983955385285852, 1.0641230705644142, 0.9884393539758622, 195519000000
-0.05861000351174206, 1.0758562809073704, 0.9881968501913337, 195524000000
-0.0500780024084997, 1.0592794351641297, 0.9882888510269418, 195529000000
-0.041767430495561905, 1.0717432754448306, 0.9878361532225584, 195534000000
-0.06025379200720901, 1.0619563150299292, 0.9874700511895563, 195539000000
-0.06503638854436096, 1.0656979733782286, 0.9878785135621194, 195544000000
-0.04624513654769659, 1.047278074287155, 0.9876952112005646, 195549000000
-0.0481449099191318, 1.0663266741829283, 0.9880842412905879, 195554000000
-0.011935406098145952, 1.0948078056070119, 0.9875186882423853, 195560000000
-0.02682226432187969, 1.0518392811512733, 0.9877283491313702, 195565000000
-0.04437354436028238, 1.0454490732032289, 0.9880153526974401, 195570000000
-0.06530262324004557, 1.0806097762791376, 0.9877349585691435, 195575000000
-0.04022752648083404, 1.0940124494461636, 0.9882913543751267, 195580000000
-0.05772406052098229, 1.0670705846287891, 0.9879670254940387, 195585000000
-0.05468923422839564, 1.0663811690218532, 0.9880946884151026, 195590000000
-0.07408006088033772, 1.0987570951560435, 0.9878214124746019, 195595000000
-0.05502930098394599, 1.0732865395829165, 0.9880819864905009, 195600000000
-0.052336717705838205, 1.06956504455775, 0.9875642307454561, 195606000000
-0.05233728812630555, 1.0449924915835407, 0.9875408552901207, 195611000000
-0.03686658294435664, 1.0827052611495116, 0.9871448569248592, 195618000000
-0.020926552171360486, 1.0685341329683808, 0.9871065610273169, 195623000000
-0.021861447261327754, 1.0934642093661375, 0.986931517907605, 195628000000
-0.061702020922624945, 1.0716640148041894, 0.9871430775807432, 195633000000
-0.031122465934591968, 1.0863735670396764, 0.9869521193379078, 195638000000
-0.07962408034113218, 1.0918520863694843, 0.9869340651188636, 195643000000
-0.06685679355223675, 1.1121795026161185, 0.9867000241468407, 195648000000
-0.037733895694911854, 1.0805443492092746, 0.9868558979243472, 195653000000
-0.05105693643313546, 1.0882563887676235, 0.9868094615151518, 195658000000
-0.06422054042921764, 1.0873199077801277, 0.9867305629810486, 195663000000
-0.03590828659562689, 1.1063243531370248, 0.9871560985448709, 195668000000
-0.04088873311316904, 1.098395038084611, 0.9875235921337338, 195673000000
-0.027114125488519547, 1.0837451825298352, 0.9874015854548854, 195678000000
-0.008643832561233356, 1.0621583635153329, 0.9878039302339384, 195683000000
-0.05541106209525465, 1.0973692413160552, 0.9879146017015752, 195688000000
-0.04651563334314636, 1.079028947309283, 0.9878012594458504, 195693000000
-0.036873353505404445, 1.0721645012194343, 0.9877612717350088, 195698000000
-0.07239229030886267, 1.106258885680863, 0.9878127658614516, 195703000000
-0.055307329045222065, 1.0897660343280653, 0.9874344561077072, 195708000000
0.0068667320092654985, 1.0924857371337926, 0.9876335752250606, 195714000000
-0.032303703154154276, 1.0962917056027632, 0.9871422645079785, 195719000000
-0.03180779946336505, 1.1039193447688969, 0.9868951415914587, 195724000000
-0.01194084347558667, 1.0764789770848353, 0.9869998744639845, 195729000000
-0.05221328994454146, 1.0856319327364692, 0.9871454686511738, 195734000000
-0.004779555846986909, 1.1025680645079556, 0.9863794847027941, 195741000000
-0.04753574931539155, 1.1011259353789877, 0.9865684906202956, 195747000000
-0.03582747307884613, 1.076543210572592, 0.9866777055643156, 195752000000
-0.050253720870207436, 1.1044151025411988, 0.9870263986573372, 195757000000
-0.02033621401833144, 1.0452084500579866, 0.9867118136017199, 195762000000
-0.15353943565669076, 1.0840419155723677, 0.987225271992875, 195767000000
0.14027095897517394, 1.0907498093891441, 0.9875233589763122, 195772000000
-0.013506604725999235, 1.089299697135981, 0.9874388986197482, 195777000000
-0.05760320302979185, 1.092387274334784, 0.9877235701986107, 195783000000
-0.17259117454413997, 1.1253065943723088, 0.987766738799042, 195788000000
0.09301612953251791, 1.1329183175672475, 0.9879167861071181, 195794000000
-0.016715885712499004, 1.1026617007979742, 0.987966208725918, 195799000000
-0.17054908944460145, 1.1339452307507278, 0.9882179686754047, 195804000000
0.05159820286140311, 1.1248423323765098, 0.988102207636295, 195810000000
-0.1527849308213591, 1.1050538808247712, 0.987546830476788, 195815000000
-0.02345432434907864, 1.1046399845383414, 0.9876215321379839, 195821000000
0.0952538671506866, 1.0957062805883824, 0.9878356657631973, 195826000000
-0.1617289223503084, 1.1134083717711214, 0.9876084927756081, 195831000000
-0.43604128434736894, 1.1055901489960371, 0.9883911634859465, 195836000000
0.010888393674664636, 1.0314666995557975, 0.9926789581782034, 195843000000
0.11407182663062841, 1.0554266837919961, 0.9970302429991674, 195848000000
0.6941437750693509, 1.3428492854738252, 0.9994134115726719, 195853000000
-0.5496665331509687, 1.143203206901149, 1.0022762079205811, 195858000000
-0.05066711969353443, 1.092145908301989, 1.0055658216784198, 195864000000
0.006929366053295137, 1.091896864041421, 1.0078892564402437, 195869000000
0.01963783435301496, 1.1464345705743495, 1.0109588504726037, 195874000000
0.06296038008123768, 1.1790557971597686, 1.0128672251707158, 195879000000
0.4808883590573508, 1.170908956665004, 1.015125148028232, 195884000000
-0.6073418081781344, 1.1281900076562699, 1.0164488947047075, 195890000000
-0.013477278396470053, 1.140079687247399, 1.0179535206468604, 195895000000
-0.013774813314215588, 1.0835140597505974, 1.0197239415665034, 195900000000
0.41844891493394487, 1.0476269518571166, 1.0219431717295353, 195905000000
-0.3974465014357554, 1.3166534475823792, 1.022495423228935, 195910000000
-0.008662593099719184, 1.1103320157683947, 1.0235292272610328, 195915000000
-0.06046764385691717, 1.1187463905879946, 1.0254529381248791, 195920000000
0.6342430535207988, 1.1677858266511802, 1.0249618615966842, 195925000000
-0.6064322734277204, 1.1555260638585982, 1.0260689822914981, 195930000000
-0.00827799128804295, 1.1185490406017775, 1.0275081351518047, 195935000000
0.6309546879680742, 1.1964073237915565, 1.0267459158538517, 195940000000
-0.7798888483354448, 1.1415496825314073, 1.0267694141371377, 195945000000
0.4797698376015666, 1.1484254808591068, 1.027346958292167, 195950000000
0.15610134906901543, 1.1599378204111779, 1.025067704733561, 195955000000
-0.6268888000217053, 1.1135468911464463, 1.0257646222942733, 195960000000
0.7051404713194707, 1.164294040280979, 1.0250778960325388, 195965000000
-0.012088652741450557, 1.1397811904034227, 1.0222257520481648, 195970000000
-0.6309719633806542, 1.104785753201235, 1.0220408667662684, 195975000000
0.7273557515888407, 1.1282542278242336, 1.0217908944601837, 195980000000
0.07158452071406499, 1.1875661945048628, 1.0182228745305741, 195985000000
-0.004126192906172348, 1.1142219398958626, 1.0157927667435216, 195990000000
0.05146877605736289, 1.130040258561196, 1.0141335974484837, 195996000000
0.07248754316913453, 1.1845310542185974, 1.0117889081474827, 196001000000
-0.02295667016176564, 1.0638037731305072, 1.0093368509297485, 196006000000
0.03171515140779864, 1.1002337781871099, 1.0072728963763151, 196011000000
0.030623618600138944, 1.1453525733952188, 1.0060457227009678, 196016000000
0.042100723317626904, 1.102510028168587, 1.0036348448701997, 196021000000
-0.011064214628516356, 1.1204783660871578, 1.0017410232077653, 196026000000
0.0313554544614458, 1.0864966372404923, 1.0004002079836791, 196031000000
0.023844144152841244, 1.0935763267340382, 0.9987007637359978, 196036000000
0.10246297424791727, 1.1889726036716988, 0.9968965284124779, 196041000000
0.07022439964915317, 1.1433782922348856, 0.9942435507900804, 196046000000
0.08957110818323283, 1.1209205442281651, 0.9920516094741868, 196051000000
0.05467855541193725, 1.01033428906842, 0.9903264301073386, 196056000000
0.091778297100677, 1.0840511360511478, 0.9883940330501101, 196061000000
0.08947350810885171, 1.0945428928736334, 0.9870017739856165, 196066000000
0.05491788542680003, 1.1203722387400403, 0.9852983689273168, 196071000000
0.136832779235115, 1.1240510522692948, 0.9833698583085196, 196076000000
0.07797262719717216, 1.002281623897232, 0.981732336685346, 196081000000
0.09251863642038022, 1.172724017773562, 0.9797749912990492, 196086000000
0.09136187550303071, 1.0390115914829732, 0.9780846879861493, 196091000000
0.10063206446578818, 1.129532226498122, 0.9755564629524739, 196096000000
0.024011875580640257, 0.9694056992364376, 0.9737250773462881, 196101000000
0.10908554056701804, 1.140819981516018, 0.9709773847821012, 196106000000
0.05278597062772346, 0.9869011928193846, 0.969313335191455, 196111000000
0.1380914843468567, 1.1368737358057879, 0.9668357519185925, 196117000000
0.11414412992550774, 1.0736136798818585, 0.965498313125346, 196122000000
-0.049878024144227706, 0.983216526454564, 0.9628868468827627, 196127000000
0.1553039222660842, 1.1017219898871937, 0.9611425522671878, 196133000000
0.16951920980270008, 1.043958755817624, 0.9595900822575663, 196138000000
0.10521092954145055, 1.0830915216064547, 0.957243763259573, 196143000000
-0.053700343332177436, 1.0856145560541044, 0.9559721302912815, 196148000000
0.04142598740916064, 1.0011297304249922, 0.953756736544023, 196153000000
0.13108595043786114, 1.0712011851852279, 0.9523118355677042, 196158000000
0.07410965518733217, 1.0312421664713778, 0.950571319927054, 196163000000
-0.024327336684023558, 0.9743747994020181, 0.9493294274706304, 196168000000
0.04549673814136476, 1.095006105955118, 0.9477840453229349, 196173000000
0.0563457967649798, 1.075657518245046, 0.946201226085034, 196178000000
0.06995887230541319, 0.9923273810919362, 0.9459337945145355, 196183000000
0.03592455456431368, 1.0474209031178134, 0.9438879635223568, 196188000000
-0.0013111138783362475, 0.9436943463225607, 0.94331104146989, 196193000000
0.0420598932866654, 1.0543749746536137, 0.9415587813428238, 196198000000
0.12932700297971167, 1.0404377831255622, 0.9414630600513446, 196203000000
0.060207378529368444, 1.0350123609225557, 0.9399069404420979, 196208000000
0.07802968809128677, 1.0216997026969405, 0.938994754029218, 196213000000
0.046137024300946364, 1.049382654505195, 0.9386966264368302, 196218000000
0.09294831865510467, 1.0421970399078557, 0.938035299632298, 196223000000
0.08797219484610513, 1.0331595590061402, 0.9370613268229733, 196228000000
0.06921638028040036, 1.026047965549864, 0.9366548125102744, 196233000000
0.07960378134320305, 1.0453967348790285, 0.9362263543724941, 196238000000
0.039583549673166456, 1.0545312543119065, 0.9357910498019957, 196243000000
0.028722206875438118, 1.036249160535951, 0.9353584217648473, 196248000000
0.019486364254863116, 0.9952329445685644, 0.9355898155084024, 196258000000
0.03256100712115186, 1.0239586633011621, 0.9352011477200137, 196263000000
0.053452639375573874, 1.0181786129720387, 0.9359067854884674, 196268000000
0.05519226538175797, 1.0302515064851026, 0.9356400153888474, 196273000000
0.0594251096725144, 1.0140650602802814, 0.9364402245596324, 196278000000
0.05010483051557053, 1.0522020564583021, 0.9365768887460549, 196283000000
0.07282638798375357, 0.9879561457155829, 0.9364028908637443, 196288000000
0.02607531757030767, 1.027334984219574, 0.9373915636291987, 196293000000
0.04605714725851606, 1.0169867484750401, 0.9374613239228795, 196298000000
0.057794075944684775, 0.9921566289640799, 0.9380218256530082, 196303000000
0.0728805153972292, 1.0316265860302027, 0.9389362528702496, 196308000000
0.05772787236172421, 1.0190402572402526, 0.9392891330771062, 196313000000
0.07373001419543282, 1.0223878407445577, 0.9405546244542606, 196318000000
0.04987117983250729, 1.0638630375339668, 0.9412604159155807, 196323000000
-0.02061814118216016, 1.0326545355939132, 0.9425408341439983, 196328000000
0.07935599512396328, 1.033501630956332, 0.9431515628540035, 196333000000
0.034527070658791334, 1.0616775687062554, 0.944768474811656, 196338000000
0.09750642036742434, 1.0494381094784646, 0.9458324161412862, 196343000000
-0.018449328477203267, 1.0262412795014495, 0.9464967779884488, 196348000000
0.11028839407285412, 1.0252462465795513, 0.9487584626847715, 196353000000
-0.006459036384491666, 1.0878066254916583, 0.949452399070282, 196358000000
0.05165807823753171, 1.0210793798848496, 0.9507817790944159, 196363000000
-0.0050431970060675, 1.0345741544221208, 0.9517879379143955, 196368000000
0.004794955662739259, 1.0365211918979849, 0.9531872098495516, 196373000000
0.0011235956770149769, 1.0640774888919091, 0.9553326559175269, 196379000000
0.056518055858918476, 1.0439363593277742, 0.9570393609532326, 196384000000
0.03930163479709281, 1.094555580668825, 0.9583341133169365, 196389000000
0.04860446585783683, 1.0170926454091365, 0.959390583993648, 196394000000
0.027782783688379713, 1.0698683108131242, 0.960546968521112, 196399000000
0.06425161109124672, 1.0558766654472482, 0.961352312159535, 196404000000
0.06571951221523295, 1.0509812815862518, 0.9631594505019545, 196410000000
0.05303098912621727, 1.0592839676806547, 0.9642129936524533, 196415000000
0.06314771268809476, 1.0512373634369294, 0.9651985389202412, 196420000000
0.06723746120260543, 1.0538626000651883, 0.9657348667191532, 196425000000
0.037793317651292985, 1.0520079315452273, 0.9667274064457315, 196430000000
0.07960344537794989, 1.0746857698092258, 0.9679064305293881, 196435000000
0.0538958266622981, 1.058718883011939, 0.9683947584953766, 196440000000
0.04587728675669142, 1.060232709586159, 0.9691850983605604, 196445000000
0.08960143212736732, 1.1160403883241905, 0.9701224530895142, 196450000000
0.06232653834085454, 1.0407472643416216, 0.9707603942230847, 196455000000
0.06552016107531813, 1.0883623332139454, 0.9712311813389881, 196460000000
0.056946414953680295, 1.0391195943854294, 0.9722981499060874, 196465000000
0.06376853228074547, 1.0533020439057226, 0.972464380701875, 196470000000
0.060560839767672334, 1.0317433762001507, 0.9728016792700016, 196475000000
0.03988440211118574, 1.068348441144467, 0.9731338719473217, 196480000000
0.0811961435579702, 1.0602154966425477, 0.9736419047492145, 196485000000
0.05244129851240638, 1.0479661092942316, 0.9736256992875071, 196490000000
0.08142082681168172, 1.0674982833246058, 0.974159753383925, 196497000000
0.05448838121908045, 1.06619427022089, 0.9742143450100089, 196502000000
0.06981874555029242, 1.0587526469140345, 0.9743449758351623, 196507000000
0.10400100138210158, 1.031131148839549, 0.9752074367853629, 196512000000
0.051526285695972715, 1.0664439411753128, 0.9748873640510192, 196517000000
0.03682867107988866, 1.0797028303651504, 0.9754336349750298, 196523000000
0.06728667261177833, 1.0618366113183662, 0.976042805541777, 196528000000
0.06169641096001763, 1.0680692485454246, 0.976127731403261, 196533000000
0.02457278308756565, 1.0342706249765499, 0.9762090985303616, 196538000000
0.06340345117426169, 1.1019958012388658, 0.9767156157436839, 196543000000
0.0633407555561147, 1.0381524754866165, 0.9770169174241398, 196548000000
0.06124113589891146, 1.0859823232511339, 0.9771976597288922, 196553000000
0.032333009605487434, 1.0539769064744269, 0.9771636002465285, 196558000000
0.06178851535289357, 1.0614191235010502, 0.9778281273439822, 196563000000
0.03065843731077515, 1.071800084938443, 0.977892845516257, 196568000000
0.07927159119704122, 1.070643205800681, 0.9778251112541341, 196573000000
0.04193588728723547, 1.0770114472761307, 0.9778869423045222, 196578000000
0.043871833828798085, 1.0916171687022171, 0.9782681985869888, 196583000000
0.08179739025477804, 1.0992874649010866, 0.97821726236559, 196588000000
0.06389928733363216, 1.0438581977651362, 0.9783686475219887, 196593000000
0.046563125402621496, 1.0519734189959293, 0.9783058529224101, 196598000000
0.06783626204313739, 1.0328149679094836, 0.9781152682819709, 196603000000
0.050213513159952865, 1.070489462991251, 0.9786254486229959, 196608000000
0.07463759454929429, 1.0689514800364457, 0.9786836372031008, 196613000000
0.07757469781336727, 1.0800394642349318, 0.9786663142504605, 196618000000
0.060828043307238684, 1.08554544350947, 0.9788137082275985, 196623000000
0.042982421641922446, 1.0733960173639605, 0.9785746572943088, 196628000000
0.05944189385501786, 1.0591204306551183, 0.9784200251432891, 196634000000
0.06555003981012708, 1.0522337735195297, 0.9786606738596761, 196639000000
0.08400506444973038, 1.0952340898661705, 0.9783336404318442, 196644000000
0.06123623115715152, 1.0644696100976507, 0.9785178888414895, 196649000000
0.03715556186455328, 1.0921453700261128, 0.9782726401471531, 196654000000
0.049309888195006264, 1.0753819661298212, 0.9782132031378529, 196659000000
0.06953021716180133, 1.057024868255378, 0.9781196384292911, 196664000000
0.02750012050480346, 1.0637536363346751, 0.9782209573319991, 196669000000
0.01932198975523644, 1.0751614085593906, 0.9781664126274697, 196674000000
0.0438695403375315, 1.0515565205076347, 0.9785086361279147, 196679000000
0.06589993556727157, 1.0873174252374864, 0.9784352035723844, 196684000000
0.049584228857743835, 1.0652824866827244, 0.9781380891661903, 196689000000
0.07134272465934492, 1.0396071025974356, 0.978597623650332, 196694000000
0.05716434136207188, 1.0805040079186745, 0.9782079307430497, 196699000000
0.03798410788579826, 1.0354810311645608, 0.9781597379173805, 196704000000
0.04996549930320734, 1.0817848400488932, 0.9784717737389477, 196710000000
0.06186187923800273, 1.0620158106801112, 0.9782849791338724, 196715000000
0.049450025108624625, 1.0447129620325482, 0.9781285416250155, 196720000000
0.05780370989836204, 1.060283288137036, 0.9782958295618183, 196725000000
0.06783276438851354, 1.0657823870817191, 0.9784917382976329, 196730000000
0.03541702154536667, 1.035856022674326, 0.978522660974186, 196735000000
0.016318243867424524, 1.0620099105621807, 0.9784798771043579, 196740000000
0.045914639526735114, 1.0407269477086398, 0.9782978028968696, 196745000000
0.06669619530274411, 1.0853284763703102, 0.9779736444599121, 196750000000
0.03133915102599712, 1.0796593285489549, 0.9779073590558586, 196755000000
0.0682302916780757, 1.0685236774439042, 0.9781374792328835, 196760000000
0.050300368453694184, 1.0879336133359676, 0.9779905035206475, 196765000000
0.02063876260694675, 1.0513607407518175, 0.9771361087826809, 196770000000
0.04680482278455554, 1.0927862658250562, 0.9777448678542692, 196775000000
0.042316428668489676, 1.0707539275863183, 0.9774396901889502, 196780000000
0.06355484627841598, 1.0645726647349307, 0.9771385740782829, 196785000000
0.030488883384486784, 1.065685405817075, 0.9775159666549278, 196790000000
0.0499154554995899, 1.0952021237813767, 0.9774492185614839, 196795000000
0.028456911362564643, 1.1029010141435291, 0.9772369086585706, 196800000000
0.05451624688195422, 1.0984169254659204, 0.9775246107855625, 196805000000
0.06443082890396856, 1.0778242076260764, 0.9775791151727695, 196810000000
0.03343564296488497, 1.0865088545158545, 0.9775712444802305, 196815000000
0.026055250740764625, 1.069750147354895, 0.977674976600826, 196820000000
0.04941836902252695, 1.096439956531036, 0.9778873786904733, 196825000000
0.037132519143200024, 1.0542887801964718, 0.9780496388812621, 196830000000
0.051308642573968125, 1.08505033659447, 0.9776133353946139, 196835000000
0.03503909153331285, 1.1048170393665355, 0.9779387298582598, 196840000000
0.053796155509136426, 1.0575452499320408, 0.9775450384759166, 196845000000
0.001733157449560329, 1.0671897284840355, 0.9773004736605407, 196850000000
0.029932456595332817, 1.0884467926392216, 0.9774102448135239, 196856000000
0.04300557150271503, 1.0547026165902884, 0.976838387128946, 196861000000
0.03716915365528209, 1.0693751221345063, 0.9769321846082667, 196867000000
0.048119276047566065, 1.069903820018215, 0.9764275695022815, 196872000000
0.002833770369943908, 1.0617793116205825, 0.9761615976702405, 196877000000
0.002082616216498162, 1.081082347131671, 0.9762864092902449, 196882000000
0.012571043475652424, 1.0486013828936949, 0.9761929978010205, 196887000000
0.04937476657267996, 1.069134947464538, 0.9765355543859136, 196892000000
0.006834755149270337, 1.0507146661728533, 0.9764825776792702, 196898000000
0.012284744574462141, 1.0953830701355596, 0.9766173341969957, 196903000000
0.027945076591075695, 1.079453219921303, 0.9766419350823726, 196908000000
0.051140805600524135, 1.0631424524914466, 0.9766925741294294, 196913000000
0.0037105215949693945, 1.080551198965279, 0.976734272614728, 196918000000
0.038412181005801155, 1.0702149001823162, 0.9767740735832405, 196923000000
-0.023976869487596596, 1.0751314062634134, 0.9772940918897325, 196929000000
-0.0028619533000685954, 1.0831354491685838, 0.9770404951590617, 196934000000
0.010362995005411005, 1.0847249082290094, 0.976573281934986, 196939000000
0.005491314952057498, 1.0654800383460017, 0.9764501350468647, 196944000000
0.02439840566942448, 1.0934499854766597, 0.9766807208406526, 196949000000
0.02692179629315239, 1.071365028839319, 0.9764604634749207, 196954000000
0.0071318527667699645, 1.1025234993038429, 0.9761345848315246, 196959000000
0.020841127920667703, 1.0794947274943991, 0.9762995200928128, 196964000000
0.009467127249333173, 1.0916267890018687, 0.9761223858710925, 196969000000
0.004727079422667552, 1.0935961900992726, 0.975818566852371, 196974000000
-0.38653972439897233, 1.144908970737549, 0.9767381130730607, 196979000000
0.22908072071726754, 1.0178585101921431, 0.9788749650951348, 196984000000
0.18268216650874589, 1.1456241291090143, 0.9795027975064411, 196989000000
-0.33325504856090654, 1.1328472148562791, 0.980434805487397, 196994000000
-0.1326633408542419, 1.09224751508626, 0.982466424993104, 196999000000
0.48465853804734105, 1.0040326605564882, 0.9853764969831842, 197004000000
0.03379143101785105, 1.1525920531180318, 0.9863599641599237, 197009000000
-0.331224666240614, 1.1746974560269257, 0.9880989503671236, 197015000000
0.24803868774120738, 1.0961421643671063, 0.9912307015096004, 197021000000
-0.3662048125875455, 1.1755147511814688, 0.9918453813712196, 197026000000
-0.0770906773744605, 1.075999980699197, 0.9936124925861005, 197031000000
0.16546369670999908, 1.038299444470907, 0.9964622104720857, 197036000000
-0.06491932783486849, 1.1840607723294996, 0.9976278840928972, 197041000000
-0.10946644972815157, 1.1776343074174658, 0.9987595836361743, 197047000000
0.12485649666552964, 1.039800675023241, 1.0012212164512804, 197052000000
-0.14088447704739743, 1.1996997451903935, 1.0011577689747173, 197057000000
-0.05716125642485943, 1.0922447669835054, 1.0026062966010578, 197062000000
0.19976869254241625, 1.0978441744403153, 1.0035665620710488, 197067000000
-0.3191744727120074, 1.1837687609789918, 1.0041332887533172, 197072000000
0.01108113278991047, 1.1345279796618024, 1.0044800343530382, 197077000000
-0.07352191915985366, 1.095477942061077, 1.0058925962876757, 197082000000
0.5181310492585351, 1.055389940429385, 1.0068846615483256, 197087000000
-0.40602460523907213, 1.0191761358945925, 1.0091825715164457, 197092000000
0.3310138023924318, 1.29043229501689, 1.0080800025068863, 197097000000
0.03684436511342682, 0.9961095612628202, 1.0070544857896768, 197102000000
-0.0287359729937871, 1.107039307555094, 1.005783315936834, 197107000000
-0.06662709423292201, 1.1736981958003532, 1.0043522823829987, 197112000000
0.018341871921445117, 1.0758148806199839, 1.0024053347007158, 197117000000
0.08767921184797176, 1.0087004242115527, 1.0005671025887934, 197122000000
-0.1568318578030851, 1.2198071959489056, 0.9990562696123251, 197127000000
-0.028536710671796937, 1.1417830375701914, 0.9976467174058751, 197132000000
-0.004521050264706052, 1.1126389596907884, 0.9958333433696741, 197139000000
-0.0062516280644935715, 1.1266422081116105, 0.9954614829395523, 197144000000
0.0035412272834774074, 1.1099274310417022, 0.9942222989186719, 197149000000
0.0061946675488200155, 1.0920594389159932, 0.9934602419903124, 197154000000
0.014555568310916377, 1.1041734207724818, 0.9927891901310234, 197159000000
-0.008296526485576806, 1.0978923446495825, 0.9919468352922344, 197164000000
-0.012850013627913975, 1.1092911991746353, 0.9914455103180713, 197170000000
0.0014042272081912846, 1.1131190070029848, 0.991701102793702, 197175000000
0.01393311982620752, 1.1291093225451379, 0.9906160887856709, 197180000000
-0.013748120432217762, 1.0990543328333227, 0.990657690830295, 197185000000
-0.03050528270332422, 1.1112295293429664, 0.9900862185225635, 197190000000
-0.045148659530930085, 1.1071210198717798, 0.98976670417886, 197195000000
-0.0266101988140831, 1.111719851291983, 0.9898645285359772, 197200000000
-0.035080681201257694, 1.100778293485334, 0.9894417596184842, 197205000000
-0.026134207632019225, 1.1006895844270885, 0.9890793332500868, 197210000000
-0.04386100255830251, 1.1029763235450498, 0.9892046045758192, 197216000000
0.005687603992088466, 1.111366742994816, 0.9892178054825348, 197221000000
-0.04777579843655528, 1.1089330499027972, 0.9893550026401916, 197226000000
-0.02372141553381491, 1.120114905280818, 0.9887546737163316, 197231000000
-0.4804809116075596, 1.1056814266253578, 0.9900579064498701, 197236000000
0.3904010462611041, 1.0731239336368612, 0.9918387033611784, 197243000000
-0.1177429674219708, 1.167664453824469, 0.991574016949912, 197248000000
-0.0700087544420207, 1.1230455126894625, 0.990451789035493, 197253000000
-0.5078056077131926, 1.1196631243360302, 0.9912923316586592, 197258000000
0.19928014927649407, 1.1209367702453878, 0.9929090067688945, 197263000000
0.11862663926469667, 1.088839353415804, 0.9933443034770891, 197268000000
-0.0721245400223085, 1.1089027077246676, 0.9930348171643406, 197273000000
-0.5115478234909434, 1.1123005211970256, 0.9937026495106225, 197278000000
0.3416476409921725, 1.1233037421517678, 0.9950911523468556, 197283000000
0.0854662671423738, 1.1414343745592794, 0.9951211713903754, 197288000000
-0.07977214180880891, 1.0925447092348493, 0.9949999158899534, 197293000000
-0.49565143969659126, 1.082924308796529, 0.9969388938846969, 197298000000
0.5321912486384744, 1.18354677446262, 0.9980512013036259, 197303000000
-0.0764522040551339, 1.1050878424659365, 0.9977878237133687, 197308000000
-0.5565479873737885, 1.1210377516369874, 0.9979222238572829, 197313000000
0.3321091893827629, 1.1639194162883713, 0.9991805887276712, 197318000000
0.14007846452880926, 1.1196985355245785, 0.9994546390745565, 197323000000
-0.08980106650842659, 1.1054534306186015, 0.9993837070513514, 197328000000
-0.4524276602082962, 1.0973097262348983, 1.0005503428146807, 197333000000
0.43313921235241365, 1.1750914263090786, 1.0013747057867022, 197338000000
0.1413257777472033, 1.1443303553958668, 1.0015717302523082, 197343000000
-0.09794002024901066, 1.1389308645478513, 1.0003596286189846, 197348000000
-0.4134427849223548, 1.113088150038213, 1.0026255736697085, 197353000000
0.5599598188665857, 1.1889260562130226, 1.0030005817085195, 197359000000
-0.0845940464818631, 1.1097980731808452, 1.0015836784031786, 197365000000
-0.8594842275889162, 1.0967062233181832, 1.0023920380980171, 197370000000
0.3531189688374364, 1.186724594187198, 1.0036745791375654, 197376000000
-0.018935467834472204, 1.0574611989101708, 1.0031583860756441, 197381000000
-0.0629645482575975, 1.115805617886155, 1.0025493665073673, 197386000000
-0.16591405577318227, 1.1289647382678096, 1.0041158208473888, 197391000000
0.18007995067721264, 1.0935789213951739, 1.003811183599246, 197396000000
-0.08602274523329993, 1.1301513298953105, 1.0027812780616772, 197401000000
-0.5552811945819349, 1.0666144416030845, 1.0035579785901898, 197406000000
0.49427802705523965, 1.208439913486018, 1.003961379483256, 197412000000
-0.012454584006395562, 1.0529548457742128, 1.0028602133132294, 197417000000
-0.07890974101511955, 1.1330159588667177, 1.0018268651111997, 197422000000
-0.07423113355491463, 1.1229524845025898, 1.0029526696088544, 197427000000
0.0736911110240041, 1.0827006893612983, 1.0023435063341852, 197432000000
-0.03336376857692189, 1.1730995145696232, 1.001255825583362, 197439000000
-0.06069521128569782, 1.119863632569351, 1.0016595080400712, 197444000000
0.13011417369588602, 1.1054073732631962, 1.0008756530862442, 197449000000
-0.09846383462712908, 1.1371100231784816, 0.9999124317912992, 197454000000
-0.3741723172440602, 1.1118955438226281, 0.9991981452201409, 197459000000
0.29115841320207186, 1.109660347904744, 0.9993713113885364, 197464000000
-0.3207082725918174, 1.166828967835533, 0.9997448787878178, 197469000000
-0.17072156801896188, 1.08058077295003, 1.0013499118666456, 197474000000
0.4352877496521895, 1.1497224018531556, 1.0032695673260488, 197479000000
-0.44730502748697676, 1.1129122019241784, 1.0058484644799182, 197484000000
-0.0037536255938961944, 1.1071758773367284, 1.0078560477523915, 197489000000
-0.04002173876801446, 1.1405652328719025, 1.0104983176712818, 197494000000
-0.0071973008485948795, 1.1727405530887056, 1.012762313167872, 197500000000
-0.05210768340157356, 1.1578402824458354, 1.0159731685041296, 197505000000
-0.05269314244965935, 1.140720464106322, 1.019756735362106, 197511000000
0.6532369117866859, 1.0475345740562343, 1.0211875440235312, 197516000000
-0.36022956482885077, 1.0937227881190208, 1.0235040488765905, 197521000000
0.31744157220975006, 1.1769068508003657, 1.0255528568930226, 197527000000
0.15294876912201802, 1.100983979231183, 1.0238373812588488, 197532000000
-0.5495940460399436, 1.173397854705964, 1.0245711630850818, 197537000000
0.8331782378039567, 1.1058819147198327, 1.0248377637684665, 197542000000
0.11755684514725775, 1.133961913188199, 1.022074488294655, 197547000000
-0.8119241505083318, 1.1281438188779844, 1.0214869986126665, 197552000000
0.6242569794289469, 1.0558479137078678, 1.0212366686577707, 197557000000
0.011435596228161645, 1.1963019656932965, 1.0172350637741834, 197563000000
-0.6733184703495934, 1.1499870837016468, 1.0167361489752542, 197568000000
0.7024214830363991, 0.9743530858954401, 1.014900974948981, 197574000000
-0.0863473099324243, 1.2791291350312655, 1.0121502643399585, 197579000000
0.012608558814399312, 1.1585661391241906, 1.0095386930328676, 197584000000
0.004464401891300884, 1.1100862336976993, 1.0072159895913475, 197589000000
-0.028154311882639962, 1.1382068684477806, 1.0052438805738713, 197594000000
0.09208353444897116, 0.9863398486765651, 1.002913441151756, 197599000000
0.04851875520714999, 1.1273567207874922, 1.0004814429531803, 197604000000
-0.0013237965118891287, 1.1032438991956126, 0.9983971154691273, 197609000000
0.007240698433022763, 1.1020783040906144, 0.9966606440393847, 197614000000
0.02201393697003441, 1.1227147930053787, 0.9942498468977906, 197619000000
0.009410381805260456, 1.0712439533329283, 0.9935883761861785, 197624000000
0.028899464754806793, 1.1126029565958901, 0.9919545558081986, 197629000000
0.02155995647908144, 1.099404666824532, 0.9899980824039185, 197637000000
0.008178668832574001, 1.1200271673072837, 0.9891437472978781, 197642000000
0.03466621729240559, 1.0677553826843869, 0.9886677384282948, 197647000000
0.027708494310674334, 1.1050620454035602, 0.988920285077156, 197652000000
-0.005144910101726664, 1.1027086826584276, 0.9889036132626878, 197657000000
0.02487041049782851, 1.0828812394297809, 0.9891540572376125, 197663000000
0.001436170562404842, 1.0988300572920313, 0.9897140712494965, 197668000000
0.04345889654743516, 1.1008001535075436, 0.9905823654248682, 197673000000
0.013290563535628894, 1.0860912287951852, 0.9913331669240414, 197678000000
0.02318070685678944, 1.0933786485800439, 0.9919230218859328, 197683000000
-0.00923094855871959, 1.08275818668003, 0.993455493808004, 197688000000
-0.005493321281036459, 1.0762837314684186, 0.9942853115704122, 197693000000
0.01742651189431731, 1.090133451839005, 0.9955718046005013, 197698000000
0.014759858686291628, 1.1001668526697075, 0.9966610002492469, 197703000000
0.01872711445443453, 1.097819379109771, 0.9978431059114391, 197708000000
0.026075705674145157, 1.1107177235403816, 0.9981612426994426, 197713000000
0.03117627045861325, 1.0848763530683554, 0.9990501239817895, 197718000000
0.02355581877711689, 1.0917386794282449, 0.999900335261186, 197723000000
0.017570752263736687, 1.102028945872206, 1.0001301361839245, 197728000000
0.018623253689445344, 1.1031308318586106, 1.0005809706841835, 197733000000
-0.019415368964262113, 1.0884065108418557, 1.0012627088563704, 197738000000
-0.0016278015653233488, 1.1169987979597378, 1.0013258356727064, 197743000000
0.003760589948491551, 1.0759915167063947, 1.001385472870267, 197748000000
0.020897154365505925, 1.097227039797096, 1.0021244508660183, 197753000000
0.014583719300207687, 1.0930823560938623, 1.001919586249781, 197758000000
0.0015625458889878957, 1.0647663917631704, 1.0016264986471406, 197765000000
0.007728531411951884, 1.1034396076550115, 1.0020673647635008, 197770000000
-0.012327215390331093, 1.059789467813831, 1.0019506228387987, 197775000000
0.010376795002945142, 1.09305866517908, 1.002162040075769, 197781000000
0.015751388438670723, 1.1136663888321257, 1.0023091993237927, 197786000000
0.04800712332672689, 1.1023572611217851, 1.0021411082113993, 197791000000
0.030204295153212553, 1.1084963836822184, 1.001697842310573, 197796000000
0.004806903169229012, 1.0761970999186938, 1.001566419464713, 197801000000
0.026471663502247868, 1.0960772849408411, 1.0014294418760938, 197807000000
-0.006549178730939187, 1.1031680290253427, 1.0010747881595037, 197812000000
0.011782082573530826, 1.0391834247135114, 1.000671114519273, 197817000000
0.03290060762799703, 1.0718512670076026, 1.0003585524440148, 197822000000
0.037326762968222314, 1.0794377147600236, 0.9994635094769272, 197827000000
0.008282857378758899, 1.078081926205435, 0.9994159397203066, 197832000000
0.04630187303226785, 1.0902819887384936, 0.9986922127706559, 197837000000
0.017666862949946217, 1.067089184958184, 0.9979580725249833, 197842000000
0.06098897790869182, 1.070783388637146, 0.9978202941201942, 197848000000
0.034647023387468806, 1.043379524701695, 0.9967586687556667, 197853000000
0.024633274986879748, 1.0913416274880796, 0.9962366588696325, 197858000000
0.021301742931855112, 1.0830398413354956, 0.9958243113376922, 197863000000
0.00493113341263432, 1.078086014689655, 0.994974061567336, 197868000000
0.010776110871539894, 1.0497234336899366, 0.9942756727210277, 197873000000
0.015722327748240058, 1.1193286255034507, 0.9939452579464588, 197879000000
0.01567153923466945, 1.0936159286534515, 0.9935064691203792, 197884000000
0.007009613457429082, 1.0542154532601482, 0.9932454552331821, 197889000000
0.06441999909391402, 1.0737561321216238, 0.992595906174763, 197894000000
0.02524745936944485, 1.0690628486086071, 0.9917905790470448, 197899000000
0.014663579839825129, 1.084368072902998, 0.9911164786688168, 197904000000
0.018356810700389123, 1.0860012692824201, 0.9902719317830623, 197909000000
0.018859903208321815, 1.0575661544273918, 0.9899228513445985, 197914000000
0.04328020985524434, 1.103425996699032, 0.9892956276398392, 197919000000
0.04532390141471442, 1.0616331638222984, 0.9887039618692657, 197925000000
0.037187549913159576, 1.0351847983889477, 0.9873345814565319, 197934000000
0.027038875914167128, 1.0725918111477946, 0.9870631278133013, 197939000000
0.02456128165305515, 1.059741140064591, 0.9867692001405117, 197944000000
0.029670819664908556, 1.0749022043504695, 0.9859163609707806, 197949000000
0.03247404373312765, 1.0969503545131352, 0.9856836077310676, 197954000000
0.02408535338294606, 1.0334478367569335, 0.985003079216778, 197959000000
0.04648176969751691, 1.0788590726785965, 0.9845642960559959, 197964000000
0.04464266419112364, 1.0525174918208497, 0.9841149296739798, 197969000000
0.001637582539050178, 1.076377637278049, 0.9834725568110108, 197974000000
0.01849476876752737, 1.0464626389511213, 0.9829812526157463, 197979000000
0.023652052828177533, 1.0846599113975695, 0.982653226506959, 197984000000
0.017036601906241795, 1.0739206303885933, 0.9822216657318736, 197989000000
0.018481348012805033, 1.0930170778626545, 0.9815733888251001, 197994000000
0.011250250439636084, 1.0441748316669712, 0.9812423891595955, 197999000000
0.0369098964746883, 0.9996764786868094, 0.9811653461655967, 198004000000
-0.032043756167649456, 1.034796750221586, 0.9811920782964959, 198009000000
0.05448347880635994, 0.9913905800922488, 0.9810102220098356, 198014000000
0.025914052006108128, 1.0789758237158666, 0.9816751495471028, 198019000000
0.054160211693437266, 0.984611062361038, 0.9821060769606084, 198024000000
0.002983444415444521, 1.0410536369402796, 0.9831083830619416, 198029000000
0.0034917447062636584, 1.0525301069734387, 0.9839503990525663, 198034000000
-0.002459319197740575, 1.1065831356238045, 0.9844520611117387, 198039000000
0.004309448343824414, 1.1636915568575563, 0.9855555525699551, 198044000000
0.002026235559126914, 1.0768515712758722, 0.9870185121113818, 198049000000
-0.0042629427516605, 1.0683703842125931, 0.9876905935840019, 198054000000
0.0017302427743723196, 1.0542034668807323, 0.9888541597053628, 198059000000
0.0160875997098796, 1.037178205379009, 0.9894264112853258, 198064000000
0.021124643879234767, 1.0646279222630588, 0.9901073053590955, 198069000000
0.013730388396788232, 1.0850318935051513, 0.9914797136377973, 198075000000
0.03656491064419844, 1.065877480478928, 0.9913986696091447, 198080000000
0.009927783805423173, 1.0556478747124685, 0.9922875459019894, 198085000000
0.03909356544354502, 1.0854867234627956, 0.9932385553268822, 198090000000
-0.010171244328107681, 1.0908886588622184, 0.9935130865699601, 198095000000
-0.008237348733543266, 1.077156553036145, 0.9937483552913473, 198100000000
0.008551844394414693, 1.0758203145370715, 0.9939915343034968, 198105000000
-0.006410054154498426, 1.1125771597136835, 0.9941492979397192, 198110000000
-0.01830319237814072, 1.0548335389536743, 0.9947548067173805, 198115000000
-0.017516313920725946, 1.0564987694111359, 0.9946580346093518, 198120000000
0.0031504335846790263, 1.0815762221467302, 0.9950413066972744, 198125000000
0.012482109635996056, 1.0518902735682056, 0.9954335136113978, 198130000000
-0.018846916566614257, 1.0945055108368265, 0.9955706378961114, 198135000000
0.023703350140477256, 1.0637904061205785, 0.9957537880809504, 198140000000
-0.013131434136979384, 1.095721897502201, 0.9958309788684914, 198145000000
0.022489320203296186, 1.053803844126978, 0.9964416627393701, 198150000000
-0.0034629791972298155, 1.0740864451776526, 0.9967952930723188, 198155000000
-0.007427537420200384, 1.0531382724157656, 0.9973139437128954, 198160000000
-0.0006093017224388587, 1.0917373439563016, 0.9968193939356114, 198165000000
-0.01435272540031721, 1.0895236915039859, 0.9973807470457993, 198170000000
0.029533636320811626, 1.0771748937632888, 0.9977940649629264, 198175000000
-0.011609984483584445, 1.0586436808108184, 0.9976442955019836, 198180000000
-0.01804003594514968, 1.082156685723782, 0.9978833505475972, 198185000000
-0.0024730509397434862, 1.076426562041398, 0.9978719846858854, 198190000000
0.009192447956215776, 1.0717648708865752, 0.9978458959008447, 198196000000
0.003628961893641135, 1.0540344294561002, 0.9976702645597776, 198201000000
-0.014584140707476044, 1.0863286453629133, 0.9973969251035916, 198206000000
-0.009291948789450263, 1.0543045925360552, 0.9975518958632975, 198211000000
0.0069935234980493255, 1.0669599328118151, 0.9975076838991349, 198216000000
-0.023266715837515786, 1.0990466091517181, 0.9972673885826266, 198221000000
-0.006390617087159159, 1.075628214385722, 0.9969245556556526, 198226000000
-0.02150287396827903, 1.09599252536123, 0.9972261822288608, 198231000000
-0.0131627461103416, 1.0913267572223189, 0.9973016786800027, 198236000000
-0.02346045616922078, 1.0842761200921305, 0.9974422073278468, 198241000000
-0.014814540972681423, 1.0690392736879601, 0.9973908163775894, 198246000000
-0.017710644503052327, 1.0657379147308712, 0.9973204046805053, 198251000000
-0.004821523783994532, 1.112725838869714, 0.9977041941178291, 198258000000
-0.01500395673908368, 1.056378988288091, 0.9978685072741463, 198263000000
5.396623551424777e-05, 1.0394024275185716, 0.9980679760963465, 198268000000
-0.020975886510148124, 1.086944450228234, 0.9979668970645343, 198273000000
-0.01937567711132956, 1.0955395260609295, 0.9980880979979322, 198278000000
0.01088462340057046, 1.1228667345923433, 0.9980964248571125, 198283000000
0.0076545156440882695, 1.0909262901723176, 0.9983198812361833, 198288000000
-0.005427856739834751, 1.121447947176571, 0.9975882241704933, 198293000000
-0.005219191841281865, 1.1142109808197491, 0.9979959928908585, 198298000000
-0.021410400946795707, 1.115760006297418, 0.9978916818962853, 198303000000
-0.022977147556918487, 1.0930702697895627, 0.997567098460924, 198308000000
0.05362589024573673, 1.1302317817130003, 0.9963887967843215, 198313000000
-0.09861320089795898, 0.981083378303359, 0.9965551502490323, 198318000000
-0.01666405398350785, 1.1017783780912644, 0.9961381526850309, 198323000000
0.03871184619768981, 1.1364681055012023, 0.9953584935046285, 198329000000
-0.16438149876703606, 0.940630276367773, 0.9946474365912956, 198334000000
0.033677789123412294, 1.1289533608618407, 0.9946998619842272, 198339000000
0.0038396893038945556, 1.1024921282963676, 0.9940618482558237, 198344000000
-0.07295267419390428, 1.0388381605989632, 0.9940811151840684, 198349000000
0.07326446374891003, 1.1714231028277076, 0.9936952693510606, 198354000000
-0.03520309020116252, 1.1253767970701383, 0.9934180233682502, 198359000000
-0.041391425604830966, 1.072046132754461, 0.9930698588250979, 198364000000
-0.027049462598803226, 1.0803920334760853, 0.9928130536002815, 198369000000
-0.05792568414616053, 1.0972796463331977, 0.992462005469781, 198374000000
-0.17888911006902605, 1.0013179469960936, 0.9923902315814223, 198379000000
0.0553138174169211, 1.1467867591693666, 0.9923695833233258, 198384000000
-0.020358015442115487, 1.0580124593986575, 0.9919114480110025, 198390000000
-0.04432538474957531, 1.1291193399297434, 0.9914955331713625, 198395000000
-0.03398479582696781, 1.086472595483174, 0.9908797512946919, 198400000000
-0.032668683295510696, 1.1052787922915073, 0.9907974989771559, 198405000000
-0.02432801030680802, 1.080313305054095, 0.9900555900925997, 198410000000
-0.05682450915085458, 1.0892330821577336, 0.9899569841540865, 198415000000
-0.016477495437978454, 1.094805877556971, 0.98957365002751, 198420000000
0.004587935929238611, 1.1176544206758627, 0.9887556916838303, 198425000000
-0.025857413302665156, 1.0816352092233747, 0.9887614203802317, 198430000000
-0.03361871558627175, 1.1067621728308685, 0.989059429614875, 198435000000
-0.024450849632710384, 1.0887024073238136, 0.9889682584804586, 198441000000
-0.04393172590245799, 1.0923732925645382, 0.9887175541069071, 198446000000
-0.03593443005692774, 1.1323073214707966, 0.9886904069268752, 198451000000
-0.019250675675321655, 1.1032734347287236, 0.9883674507622894, 198456000000
-0.02191963218157015, 1.0863241682428215, 0.9882244353227296, 198461000000
-0.027417231235888753, 1.1102177522141425, 0.9880842611653067, 198466000000
-0.014604089166283658, 1.1053397760815904, 0.9881745773035575, 198471000000
-0.02523814939128985, 1.1354217789558387, 0.9885106669189166, 198476000000
-0.048376354410122516, 1.0864397600638847, 0.9884262150880243, 198481000000
-0.036884908752066514, 1.088026186232195, 0.9881756885380442, 198486000000
-0.037206117392775025, 1.0913810451168178, 0.9879775677331372, 198491000000
-0.0787393846592349, 1.111607924849382, 0.9879799195897316, 198496000000
-0.04656426170882234, 1.0918921367988483, 0.9879868957245381, 198501000000
-0.034656114637759375, 1.1158154995988756, 0.9878718082506551, 198506000000
-0.4267302094050547, 1.0952508970477939, 0.9891301841733725, 198511000000
0.46474493008201295, 1.0740178955905901, 0.9909574547960319, 198516000000
-0.047652277666748885, 1.166538109125679, 0.991254664153529, 198521000000
-0.4588880896734443, 1.1422104039930867, 0.9918144125930676, 198526000000
0.23508480278744734, 1.0711089179535467, 0.9939357322028346, 198531000000
0.13496516668914108, 1.1373340284068483, 0.9944260984181277, 198536000000
-0.5085128105349945, 1.1564307549519612, 0.9954159792639728, 198541000000
0.20674032765967845, 1.0720715924218922, 0.9974278252885369, 198546000000
0.18734804384237586, 1.1375475930815082, 0.9988630959875822, 198551000000
-0.499753041314549, 1.1327315119635482, 0.9999139694821534, 198556000000
0.21564458636589787, 1.0929481489407138, 1.0017847115073222, 198561000000
0.1266455494173357, 1.2049556606066163, 1.0024078862206003, 198566000000
-0.4722690886606008, 1.144062653227827, 1.0038836580496322, 198571000000
0.22559103115021295, 1.1307413346882316, 1.0062799014177843, 198576000000
-0.12326900049485101, 1.1523129372551006, 1.007237294105145, 198581000000
-0.1347228486466401, 1.1250246634915455, 1.0090572591915317, 198586000000
-0.28090310519861117, 0.9891090944333147, 1.0107310182087916, 198591000000
0.05321974862757386, 1.205072614310605, 1.0140015554433541, 198596000000
0.15028081553013198, 1.2639541824695737, 1.0161003272769245, 198601000000
-0.35411169194163133, 1.0476101426059046, 1.0176097544282245, 198606000000
0.018669591200555235, 1.1910924058149692, 1.0206615420008982, 198611000000
0.22791730210004152, 1.2641804050958076, 1.0220336305055804, 198616000000
-0.3004859068806159, 1.0356161488786326, 1.0230927902907438, 198621000000
0.026188345948309533, 1.1597342668088424, 1.026015631803352, 198626000000
0.1425454620879834, 1.233956557196632, 1.027719748335162, 198631000000
-0.08741338667334195, 1.140409859864812, 1.0283056765519347, 198636000000
-0.19375054709235096, 1.0968501378771045, 1.0310782449435207, 198641000000
0.05719536986816012, 1.2084818776090007, 1.0329602004786986, 198646000000
-0.004365875166141633, 1.1672473276057247, 1.0342931272766418, 198651000000
0.13033445687681236, 1.2074785954153124, 1.0347845983410644, 198656000000
-0.2662381827775715, 1.0552814275432008, 1.0366966458284188, 198662000000
0.04476758647945134, 1.2009131583246808, 1.0381386389521743, 198667000000
0.012031376693293936, 1.1419035955404215, 1.0394841518718567, 198672000000
-0.025794222203215183, 1.1515600790163432, 1.039672555820669, 198677000000
-0.009797155599106405, 1.1681519873541517, 1.0408603396022142, 198682000000
-0.017324031836034065, 1.1474112036934336, 1.041622144619049, 198687000000
-0.0507973828255351, 1.158366010130944, 1.042330501848008, 198692000000
-0.011610299834216662, 1.1282749179794913, 1.0429560219247658, 198697000000
0.0027622318690987326, 1.135697881515996, 1.0443472861890541, 198702000000
-0.009842225765929967, 1.16862578988987, 1.0454936318891235, 198707000000
-0.006780212142518423, 1.1676767590968498, 1.0465558039278726, 198712000000
-0.0207012917263163, 1.183845579629055, 1.047315675486579, 198717000000
-0.026287263467332678, 1.186761804400652, 1.0489125175300644, 198722000000
0.7126048173577141, 1.2331115531216301, 1.0472301871691827, 198727000000
-0.048018647528362594, 1.1643355278130663, 1.0443209155952005, 198732000000
-0.6432254979954232, 1.1228591814106035, 1.0447910080098324, 198738000000
0.5705844011063992, 1.2324410491525675, 1.0416654247689003, 198743000000
0.007889961653997492, 1.1256087603843798, 1.0363421951206906, 198750000000
-0.021748725490329225, 1.1736280616682777, 1.035182243512164, 198756000000
-0.03474284993655549, 1.113605937947476, 1.0314614355525187, 198761000000
0.015263891649712553, 1.119221484109711, 1.0279751700912083, 198766000000
0.03570552168500416, 1.1370886295124851, 1.0248950675195125, 198771000000
-0.013464184469218526, 1.1234904575843303, 1.021488988719759, 198776000000
0.056597184052460364, 1.2237402310602956, 1.0184728365265934, 198781000000
-3.27378869971473e-05, 1.1392412067438438, 1.0143091866563732, 198786000000
0.0044648308854394365, 1.127147510594656, 1.0111859489307746, 198791000000
-0.01075917129637653, 1.1253845777400104, 1.0079462058291033, 198796000000
0.009405402932184705, 1.09699745024636, 1.0046622890475856, 198801000000
0.022694667225237407, 1.072076656889139, 1.0025107354297382, 198807000000
0.13103408807633393, 1.0401717343096955, 0.997531168410284, 198812000000
-0.02264801892817771, 1.1259034847457865, 0.9944309946255694, 198817000000
0.12029606515038442, 1.0213064650457284, 0.9911333111129182, 198823000000
0.006949170181859995, 1.083907198688186, 0.9884825201698104, 198828000000
-0.07084148521450914, 1.1269377197037314, 0.9859368068099024, 198833000000
0.11843925320220867, 0.9992090021629719, 0.9846734397277143, 198838000000
-0.07401823687546276, 1.1300409347017462, 0.9833441273213678, 198843000000
0.11266391715961832, 1.0384247285511015, 0.982286071593316, 198848000000
-0.07305978444739859, 1.173055136460683, 0.9820934464676192, 198853000000
0.0702751495919786, 1.0330126335021472, 0.9822426509822251, 198858000000
-0.027701298349447817, 1.078067931223005, 0.9825181468906082, 198863000000
-0.0029532429391984066, 1.0688270730421536, 0.9827237457944575, 198868000000
-0.07040838505079983, 1.1225505952567274, 0.9839507627977254, 198873000000
0.014075130077856076, 1.0419199625776383, 0.9853601644340394, 198878000000
-0.12484959926124445, 1.163807600159795, 0.9864516055982684, 198883000000
0.05058607733260043, 1.0220095864628025, 0.9883543756737123, 198889000000
-0.06781722999582085, 1.1469767709979948, 0.9905169450083388, 198894000000
-0.032244412201011916, 1.1846180340695036, 0.9932361565983707, 198899000000
-0.03537192187574423, 1.1139855136040788, 0.9960851278006517, 198904000000
0.004061331113684747, 1.1386791796035465, 0.9984859062933239, 198909000000
0.0035545262805569845, 1.1098910457871076, 1.0013298861002082, 198914000000
0.01779487937444294, 1.0877560861399436, 1.0041897988625177, 198919000000
-0.021272721784811547, 1.0634228754600428, 1.0059373628120387, 198924000000
-0.005291196547143775, 1.0950920187374826, 1.0080052998937408, 198929000000
-0.021135826717552143, 1.102209936273311, 1.009574703826777, 198934000000
-0.008954341032381666, 1.0704028645877919, 1.0109902702578035, 198939000000
-0.03583259274846054, 1.094284626813661, 1.012173383760114, 198944000000
0.015645909283059544, 1.0875195628682504, 1.012295115561074, 198949000000
-0.020200167738949223, 1.116637301500371, 1.0127636737108556, 198954000000
-0.005454909558552583, 1.0884420025644792, 1.0125359797415385, 198959000000
0.001444591241980172, 1.101690929990165, 1.0113625511363942, 198964000000
-0.009896074247775067, 1.0440441617693885, 1.0102823846829303, 198971000000
0.0010650718329967457, 1.1010291284527962, 1.0086066945408887, 198976000000
0.001203249281957175, 1.0937693101183397, 1.0070474004590544, 198981000000
0.022177206746319976, 1.1015798112657347, 1.005229623045096, 198986000000
0.03436138182891263, 1.0805247041771813, 1.0037627661862105, 198991000000
0.019066495992985207, 1.0846879448401077, 1.0022664683015896, 198996000000
0.02717120965331876, 1.0906559631230617, 1.0006762921304402, 199001000000
0.014510543347949706, 1.0529240753086244, 0.9993238587762922, 199006000000
0.04073389898216109, 1.0846872900607178, 0.9975052634303977, 199011000000
-0.006023644157878235, 1.0885317849326137, 0.996802588242241, 199016000000
0.06783146694634738, 1.121990834031742, 0.9957252476572211, 199021000000
0.026864492411474594, 1.0889950681061362, 0.9932818099798488, 199026000000
0.028459840914393398, 1.1331210207186744, 0.9923506148243774, 199031000000
-0.0915914443861001, 0.9817790363475621, 0.991739620471667, 199036000000
0.09357053302973203, 1.1364693762270526, 0.990125180143208, 199041000000
-0.07202967394184258, 0.9784734936580992, 0.9886324080508259, 199046000000
0.05938637760829065, 1.1644854389488297, 0.9871199884281728, 199051000000
-0.11085610763848303, 0.962027648785619, 0.9865357474687202, 199056000000
-0.04056996428397132, 1.0550187420023698, 0.9856086924376454, 199061000000
-0.0029147316985878684, 1.008407271567916, 0.9845942865468377, 199067000000
0.018066357821824613, 1.0293080320091013, 0.9840449924327414, 199073000000
-0.0008446363377025961, 1.0317008190466108, 0.9838689056557559, 199078000000
-0.010004569497775668, 1.0539215534405428, 0.9837004818022758, 199083000000
0.008094168350295165, 1.063712531372323, 0.9834726780651033, 199089000000
0.023677216953306646, 1.0748870273117992, 0.983323869891534, 199094000000
-0.01284623564556993, 1.077181133584807, 0.9833481694620665, 199099000000
-0.023964746672151337, 1.0883632542625008, 0.9827158885217231, 199105000000
-0.0021179579899041233, 1.0533757082634232, 0.9832432526964803, 199110000000
-0.008285768586056511, 1.0682644449841174, 0.9826718661128973, 199115000000
0.00884649582320952, 1.0684195297446406, 0.9828094646099462, 199120000000
-0.05426975266244639, 1.0644605730023036, 0.9829821674062541, 199125000000
-0.024254072537507314, 1.0144546353607926, 0.9828289534305014, 199130000000
-0.010030294816218555, 1.0884614142031037, 0.9833277414103013, 199135000000
-0.01642283529168327, 1.0933932627176457, 0.9831879719744836, 199141000000
0.0003279779829056424, 1.0634923729308636, 0.9830615005687132, 199146000000
0.0008203237829158619, 1.044353235379602, 0.9833693189038044, 199151000000
-0.021710893601968005, 1.0341002463602484, 0.9830510554107141, 199156000000
-0.007155319902942738, 1.0769671161030896, 0.983243647748309, 199161000000
-0.04503625961880616, 1.0518472212313483, 0.9829844160932762, 199166000000
-0.015579970516271425, 1.0907747052620052, 0.9829177206566317, 199171000000
0.039035487104208476, 1.056616779549427, 0.9833295602901838, 199176000000
0.003041265003157169, 1.0224495199037074, 0.9835294697363024, 199181000000
0.015917407335852105, 1.0723687950447673, 0.9841655766827118, 199187000000
-0.018668738848365743, 0.998434517097476, 0.9846955714796953, 199192000000
-0.007787897724415852, 1.0449702540258605, 0.9854064533491483, 199197000000
0.010491455849942627, 1.0494444418686482, 0.9860002688697189, 199202000000
-0.022364958225555506, 1.023916668924722, 0.9866689764095006, 199207000000
0.0037465338851656767, 1.0379981045426419, 0.9873495723340515, 199212000000
-0.007496751232190342, 1.0741843379843072, 0.988495967230431, 199217000000
-0.017418627109069246, 1.049363933277831, 0.9890649366172749, 199222000000
-0.024762843116151664, 1.0959024770096901, 0.9903436663380158, 199227000000
-0.03698397511950929, 1.057558253831802, 0.9909262132965226, 199232000000
-0.0306704993552043, 1.0830935943833104, 0.9919811613659019, 199237000000
-0.044648735426691843, 1.0395055410352567, 0.992025094803038, 199242000000
-0.028970522457741496, 1.082609935801063, 0.9933815414468777, 199247000000
-0.009493773807897996, 1.0799117449149092, 0.9937790538817817, 199252000000
-0.06166326048793992, 1.093956905848422, 0.9941754438154176, 199257000000
-0.027342127470276218, 1.084461533183252, 0.9949861402052603, 199262000000
-0.0091525803666785, 1.1031376576862824, 0.9951298374225805, 199267000000
-0.008028732422304785, 1.0731333501132756, 0.9953949345452137, 199273000000
-0.03715527601471628, 1.1058846374697249, 0.996072090846104, 199278000000
-0.020948606625229713, 1.0786784391003774, 0.9963196065559831, 199283000000
-0.012467829089391227, 1.0358849974012567, 0.9963808788125753, 199289000000
-0.015274530934945681, 1.0704227309839902, 0.9971790371384313, 199294000000
-0.015572517712751217, 1.0982421138404521, 0.997679736514911, 199299000000
-0.014807147023658297, 1.1660129838281674, 0.9974416460259202, 199305000000
-0.05657395826956414, 0.9352913251598075, 0.9971008844474891, 199310000000
-0.059072208242684686, 1.1327004015278308, 0.9974469681819719, 199315000000
0.005640777472560745, 1.1964439779243252, 0.9970572822916649, 199320000000
-0.09768666893852285, 0.9199815153477492, 0.997094786284308, 199325000000
-0.029837706914659076, 1.106869218936723, 0.9973234489289715, 199330000000
-0.017243392808968392, 1.1853996508206002, 0.9960896941987151, 199335000000
-0.07173069099777789, 0.9461897304307589, 0.9964368910637492, 199340000000
0.00903605203174626, 1.1601587910148774, 0.9961343245699763, 199345000000
0.12769881496183444, 1.0964159713723372, 0.9948219713954515, 199350000000
-0.20270498529662526, 0.9782506065148486, 0.9945809076958855, 199355000000
-0.045170343116900345, 1.207644587436203, 0.9932088726601034, 199361000000
-0.06297000828345575, 1.0454160739483223, 0.9929790052893507, 199366000000
0.028886290778999825, 1.0633439883235485, 0.9916612151627844, 199371000000
0.05105386344420792, 1.036908785979296, 0.9915119866800212, 199376000000
-0.12717937978445504, 1.0868831049799295, 0.9902565587613528, 199381000000
-0.08537225627351211, 1.0873052267210448, 0.9897448037343147, 199386000000
-0.08477006225995098, 1.0555575813737992, 0.9899944632719677, 199391000000
-0.02006276692119792, 1.060201520368895, 0.9892232856713082, 199396000000
-0.039163821592062775, 1.0911878744997925, 0.9891609640047424, 199401000000
-0.03452506638913416, 1.066586619129041, 0.9892324722846748, 199406000000
-0.0505041278448682, 1.0693517008034295, 0.9892565905759795, 199411000000
-0.06028625702641478, 1.0716051253901995, 0.9893276735564532, 199416000000
-0.06745625769956294, 1.108188661475319, 0.9889336891168461, 199421000000
-0.03357485809204472, 1.0841136538325087, 0.988948992466905, 199426000000
-0.05324334331014755, 1.105145995775281, 0.98857772774563, 199431000000
-0.051965840681419385, 1.0830644513346281, 0.9886142203369637, 199436000000
-0.04735062648720997, 1.050207002116723, 0.9879919137842986, 199442000000
-0.07690552793094911, 1.075070153524476, 0.9882165568340796, 199447000000
-0.05155907804233979, 1.0591637664543458, 0.9880326436254842, 199452000000
-0.04182762102381635, 1.105452713496491, 0.9879341030185829, 199459000000
-0.07056234918811669, 1.0569154189389753, 0.9875272386194535, 199464000000
-0.0387229191013654, 1.0822990761028155, 0.9873569177637929, 199469000000
-0.044199733137517384, 1.0513105491876442, 0.9871971766301657, 199474000000
-0.04978470859197622, 1.08097302238954, 0.987167003557481, 199480000000
-0.05581977424212487, 1.1119230061039542, 0.987341092176717, 199486000000
-0.0596656813219665, 1.1015973236810306, 0.9872451744651366, 199491000000
-0.043700072977152796, 1.0826839697032298, 0.9872313052649582, 199496000000
-0.0831283829121113, 1.1148363825932461, 0.9876619341791869, 199501000000
-0.06498704900128548, 1.0786282401675424, 0.9878325499155739, 199506000000
-0.053323273893153736, 1.0716487332851852, 0.9880132025027052, 199511000000
-0.025843821962654417, 1.0782385869594389, 0.9878423444825751, 199516000000
-0.04130839297031597, 1.090576519288606, 0.9879117191426545, 199522000000
-0.025979617453677602, 1.0776803255455292, 0.9879807663387913, 199527000000
-0.06484350074538175, 1.0477971243066357, 0.9880655659207954, 199532000000
-0.01753579388790169, 1.1017528478756664, 0.987916185606628, 199538000000
-0.049297287469501946, 1.1123337122095787, 0.9876777024899372, 199543000000
-0.0667922958414876, 1.0778209879337959, 0.9874578294985856, 199548000000
-0.06012604793606432, 1.1016606294618414, 0.9870796031657191, 199553000000
-0.040496856127494596, 1.0737504573448236, 0.9872037067837476, 199558000000
-0.04852900681850848, 1.0710731061891812, 0.9869904149470828, 199563000000
-0.03374811967931442, 1.071405049828726, 0.9867721268337774, 199568000000
-0.055355308652989516, 1.0961183474793885, 0.9864960037673884, 199573000000
-0.04840268122521442, 1.0751298358578623, 0.9868543249614462, 199579000000
-0.04662279207703458, 1.1227575249581367, 0.9866896100401236, 199584000000
-0.06189486071655162, 1.1002951299165742, 0.9866920838914816, 199589000000
-0.031241928883948805, 1.0897361192943096, 0.9871244388163634, 199594000000
-0.04929817277418503, 1.0794221024700565, 0.9869496032116942, 199599000000
-0.03434120292294307, 1.0931039665393663, 0.9873820819477905, 199604000000
-0.041646571689651427, 1.0895513696033525, 0.9871225884752012, 199609000000
-0.04109504204620149, 1.0841042164286656, 0.9871615504181291, 199614000000
-0.062949780687943, 1.0855474363042632, 0.9877635651576622, 199619000000
-0.02590121305230608, 1.0993856553353658, 0.9878282270804704, 199624000000
-0.03785695140642444, 1.0965485545673659, 0.9875120710829709, 199629000000
-0.06530663530706152, 1.0981088721064576, 0.9878402215756692, 199634000000
-0.033103095237094746, 1.1301718411801538, 0.9877920348562851, 199639000000
-0.047960418390291734, 1.076621572074903, 0.9874529760099813, 199644000000
-0.05068676550590387, 1.0876363832276723, 0.9875505620806734, 199650000000
-0.03624851906397889, 1.0786393977098097, 0.98738605092039, 199655000000
-0.005436890875150008, 1.0492161849722763, 0.9868133681546603, 199660000000
-0.027349351316801048, 1.0923077480537808, 0.9869273952905123, 199665000000
-0.053720552738566116, 1.103538099826854, 0.9871528766370213, 199670000000
-0.061458633887299385, 1.1061757535135126, 0.9870636508426243, 199675000000
-0.01959244996579801, 1.0840269857440552, 0.9872208057315877, 199680000000
