acc_x, acc_y, angular_z, stamp, 
0.12303411169026104, 5.5068946470004985, 1.0443523828611554, 150789000000
0.20265801333096103, 5.362641662696083, 1.0429573945415047, 150794000000
-0.38664421568255425, 5.491011438081596, 1.0444291980165747, 150799000000
0.03388167588655134, 5.148848325116009, 1.0461037689511228, 150804000000
0.3233284205148964, 6.00108463660073, 1.0470484977485999, 150809000000
-0.4731241538760484, 5.071390556607673, 1.0475414190914178, 150814000000
-0.031917511298352935, 5.684406775128564, 1.0507156494922802, 150819000000
0.2424457747325503, 5.944605974937093, 1.053103923143067, 150824000000
-8.479099407564547, 5.746478559346755, 1.0496983386890433, 150830000000
-0.3562629577397795, 5.2956567246686985, 1.0524008387076653, 150835000000
0.1333927280496398, 5.672414779715764, 1.055385103393151, 150840000000
0.43327700737880653, 5.922203823077342, 1.0548798084522393, 150846000000
-0.4139566455648157, 5.209189639566231, 1.0566266620730114, 150851000000
0.042485743443429806, 5.701226014873693, 1.0595216118380815, 150856000000
-5.774886040211815, 5.926246973311847, 1.0595184918843965, 150861000000
-0.77326922134709, 5.623386143049798, 1.0586063049209211, 150866000000
-0.38248671124251754, 5.094957774373051, 1.0606054599192407, 150871000000
0.10439772279826351, 5.6750284329032965, 1.063155937829266, 150876000000
0.4616741741711282, 5.952334557612725, 1.0645062960028437, 150881000000
-0.5138892051277828, 5.158768713254679, 1.065011320591686, 150886000000
-0.018903742803721202, 5.659257972420799, 1.0676415570294178, 150891000000
-6.476067564942216, 6.01289252501359, 1.0661151203205583, 150896000000
-0.2207366551650761, 5.523750686081798, 1.0662313056119233, 150901000000
-0.3243211480077049, 5.222147444593385, 1.068794249396187, 150906000000
0.08352697433665887, 5.691471416271336, 1.0712953552035636, 150911000000
0.4342304396695444, 5.934523444315008, 1.0717676385747459, 150916000000
-0.14460671663368496, 5.453928645778114, 1.0723296823991086, 150921000000
-0.04622043425106008, 5.688938451256406, 1.0723317289634584, 150926000000
-8.997428176609027, 5.554414184666396, 1.0685119478886167, 150931000000
0.527008540856746, 5.619153359143829, 1.0680824936781117, 150936000000
0.21740621752652112, 5.487122237773619, 1.0661301628419106, 150941000000
-0.08593361877969725, 5.58781274374348, 1.0640324982951943, 150946000000
-0.01657404489556874, 5.550291462836697, 1.0624944901330913, 150951000000
-0.2195797575430708, 5.384725207372056, 1.0621745477291062, 150956000000
0.29297888231765135, 5.636391540513131, 1.061024301986497, 150961000000
-7.117694583159697, 5.507433545802544, 1.0581708515385513, 150966000000
0.16943284581605553, 5.483611187706858, 1.0566049535843256, 150971000000
-0.09482704714561879, 5.303122980130747, 1.0560993998931485, 150976000000
0.2304813803046621, 5.53649209384558, 1.0550687489815866, 150981000000
-0.02765656635314932, 5.4830276761139105, 1.0538801616156344, 150986000000
-0.1553687997919514, 5.31215999248871, 1.0533959224563172, 150991000000
-4.912347508788543, 5.506879201151555, 1.0519216566073466, 150997000000
0.04019983598713884, 5.379995461304541, 1.0507237120292174, 151002000000
0.09656932326314936, 5.427888463403591, 1.050265885490219, 151007000000
0.026667853880716196, 5.351807591185645, 1.0495554937965936, 151012000000
0.017566867253310588, 5.393845145897791, 1.0493798224373485, 151017000000
-0.033625316064251315, 5.415759386605026, 1.0480350239512535, 151024000000
-0.08133570682555524, 5.283816818375584, 1.0477452025628067, 151029000000
-7.006008654108731, 5.464360903547249, 1.0463525061757983, 151034000000
0.13186291267223607, 5.353722607380879, 1.0458533181157403, 151039000000
-0.0010104874677834145, 5.16011805849184, 1.0451740475255427, 151044000000
0.022015826246793317, 5.4437676506852375, 1.04468358554401, 151049000000
-0.04088289869967998, 5.293683277521454, 1.0451307388235118, 151054000000
-0.029980998193393046, 5.340000121497925, 1.0448851577991416, 151059000000
-3.922382606153474, 5.328889500786214, 1.0399375098760537, 151067000000
0.21783933353798643, 5.2445118117381755, 1.0396204650248493, 151072000000
0.0522619051136797, 5.284947344136466, 1.0396134613800516, 151077000000
0.03256546236316603, 5.116124680368689, 1.0394430427325352, 151082000000
-0.009889015867984127, 5.439137914258094, 1.0386377445373205, 151088000000
-0.039500637985009183, 5.286801344927235, 1.0386103964487419, 151093000000
-4.001643504401509, 5.088571524310377, 1.0376586941036852, 151098000000
-3.9635598696486873, 5.36195609545581, 1.0357827749831314, 151103000000
0.15809216567649434, 5.1948074162603985, 1.034788302535985, 151108000000
0.07761945732745407, 5.152847959095744, 1.0349224146195697, 151114000000
-0.02648859331063614, 5.241053298760593, 1.0348954915566904, 151119000000
-0.10329540268831991, 5.372910941777174, 1.0346874417661134, 151124000000
-0.009771535980883317, 5.232929747858354, 1.0343334447658297, 151129000000
-6.809498525894058, 5.062093493232565, 1.0309822273106128, 151134000000
-0.18223430516462072, 5.2582804309840085, 1.0311471654764346, 151140000000
0.05688939953736745, 5.164190234749934, 1.0317228844056527, 151145000000
0.09987133696503028, 5.074140121689651, 1.0307886133619761, 151150000000
-0.027123078023768572, 5.168435492375678, 1.0310248686129457, 151155000000
-0.17971047569765883, 5.261949925472893, 1.0318035091413928, 151160000000
-0.04957204384079176, 5.196645827721627, 1.0320452882586832, 151165000000
-7.124036170639427, 5.0091786996118985, 1.0286994662850186, 151170000000
0.17926978067764882, 5.213990863287499, 1.0278678079027586, 151175000000
0.02965536123976332, 5.107129014502329, 1.0292042037870661, 151180000000
0.11991983381218299, 5.062161957378996, 1.0296588835567575, 151185000000
0.037001174345421675, 5.089465708226596, 1.0290752303568573, 151190000000
-0.21303135149185393, 5.223868419757391, 1.028577994716618, 151195000000
-0.02885746155142304, 5.097551084982467, 1.0290631071796301, 151200000000
-5.8447558592113396, 4.995832534232368, 1.0287646851901617, 151205000000
0.22658178782898863, 5.056280699231276, 1.02826736927241, 151210000000
-0.08968960587832438, 5.155474438676236, 1.0281480760301076, 151215000000
-0.018041946896499947, 5.123332135798585, 1.0284086404089672, 151220000000
0.1641537945113771, 4.9427415968226756, 1.0289675492869337, 151225000000
-0.22297997379180542, 5.169265471278538, 1.0292536070858505, 151230000000
-6.741990483592477, 5.0776640441854255, 1.0280209772410747, 151235000000
-0.2320532595742333, 4.930023622243127, 1.027111651508859, 151241000000
0.14479757794032652, 5.0516116554063295, 1.0278152138056509, 151246000000
-0.2086148752270298, 5.163156327182927, 1.0286287394824907, 151251000000
0.11908350893746802, 4.997310908204067, 1.0284849272311742, 151256000000
0.04976075988748481, 5.006610432192825, 1.027648201242681, 151262000000
-0.22664405654988964, 5.134789488454699, 1.0284334044401098, 151267000000
-7.078191318712758, 5.001222590289331, 1.0281602933120564, 151272000000
0.28420657131103727, 4.953181550089131, 1.0278517703022392, 151277000000
-0.1114043798882933, 5.135020219282151, 1.027395355000167, 151282000000
0.010340378137611198, 5.051198439894815, 1.0280082119508795, 151287000000
0.1519069970393706, 4.879507241032622, 1.028776124676017, 151292000000
-0.24830675064986568, 5.116248999781855, 1.028644306704202, 151297000000
-5.2121275283039274, 5.022133176158281, 1.027636533847407, 151302000000
-1.8146805488921485, 4.871479003871555, 1.0269494286096836, 151307000000
0.14674353935714413, 4.926989011084265, 1.0275833459960013, 151312000000
-0.19235840482328523, 5.07425080407502, 1.0283588580191565, 151317000000
0.00358778100695787, 4.998139902445423, 1.0288686353926948, 151322000000
0.16600063668434145, 4.8461487896182645, 1.0280007519921337, 151327000000
-0.06522668085869206, 4.978078136305201, 1.0276790500683513, 151332000000
-6.927334299492059, 5.116806288118914, 1.027769717456206, 151337000000
-0.35340976206326036, 4.948353045629933, 1.0278569882115445, 151342000000
0.25801490367723623, 4.785288538726942, 1.0269570963513157, 151347000000
-0.035116435633110864, 4.95539449560264, 1.027011121685063, 151352000000
-0.2101485724097617, 5.005834912276606, 1.0280921913666166, 151357000000
-0.010250349032150738, 4.956981901353865, 1.0289591098025352, 151362000000
0.2548222713119615, 4.740282754464822, 1.0286545849814452, 151367000000
-5.777357281274176, 4.923961547239716, 1.0247460813660196, 151372000000
-0.16399074519720774, 4.9325272089716865, 1.0253690986184432, 151381000000
0.180833847077271, 4.793609562482054, 1.0263238309485305, 151386000000
-0.13699649922102985, 4.9381800163187535, 1.0255232027106889, 151391000000
-0.08210968901091736, 4.885796755192183, 1.0255241203054801, 151398000000
0.12798500879895708, 4.85205281926977, 1.0271205235493894, 151403000000
-6.111663834516545, 4.918439110329725, 1.0241946400476838, 151408000000
0.15226604515060416, 4.84499964153235, 1.0239469825162992, 151413000000
0.05789448785716468, 4.878078355505543, 1.0240873666979435, 151418000000
0.2460808677961333, 4.6723245922141565, 1.0240785184630579, 151423000000
-0.2573225115262178, 4.946282187604984, 1.0254935073096343, 151428000000
-0.010977575744669812, 4.89982233292686, 1.0262069044538038, 151433000000
-3.888708998351387, 4.768677343993702, 1.0242741857630902, 151438000000
-3.2791343955127843, 4.931199881088837, 1.0226519843813966, 151443000000
0.1906423226993062, 4.794158945385062, 1.0232319325664818, 151448000000
0.06199411962618778, 4.8247998203112425, 1.0246836885133956, 151453000000
0.2052423835611715, 4.661631757287108, 1.024153983432743, 151458000000
-0.2936829940298795, 4.935325490116213, 1.0241061692140203, 151463000000
-0.022938990784744435, 4.830787570923855, 1.025614054879301, 151468000000
-6.708426976074861, 4.858229586827667, 1.025402917351938, 151473000000
-0.29016780158033845, 4.632413084992665, 1.025745788302575, 151478000000
-0.016336883422980814, 4.873450266582935, 1.0250865880946864, 151483000000
-0.04286147292624168, 4.7504461864594765, 1.0258096516117503, 151488000000
0.009488217913169122, 4.830264381742022, 1.0269067241858831, 151493000000
0.08427876357900142, 4.744699965472702, 1.0278020900635354, 151498000000
0.00846439513735318, 4.7449705848173425, 1.0274347625284217, 151503000000
-7.262369498495251, 4.946463905231045, 1.0268155318480776, 151508000000
0.0778060971775727, 4.7276207417255565, 1.027396960835821, 151513000000
0.0744352331311695, 4.772714500699156, 1.0283076191133391, 151518000000
0.16214828103925813, 4.602909320693106, 1.028793658714025, 151523000000
-0.2808665268376024, 4.897163591241887, 1.0286783199573797, 151528000000
-0.003910063477528144, 4.768568757230219, 1.0292514385293754, 151533000000
-0.03214808720329178, 4.7675104229850085, 1.030455473531721, 151538000000
-7.075006389308349, 4.6129041662712735, 1.0289183497575793, 151543000000
0.057517534709472184, 4.815394015283391, 1.0289567871749044, 151548000000
0.03407622648230514, 4.732002435696352, 1.029182712386798, 151553000000
-0.017993772292533097, 4.761046346997005, 1.029311121404215, 151558000000
0.13424270896835577, 4.582488184103541, 1.02963250791019, 151563000000
-0.2677622030423909, 4.863560314363553, 1.0301614560160666, 151568000000
-0.040820570882214906, 4.690797698949651, 1.0306322344714445, 151573000000
-7.100780607332664, 4.771907633099101, 1.0296616654895758, 151578000000
0.15632400110083838, 4.712679515630385, 1.029589797810716, 151583000000
0.17601630239352573, 4.572018437690999, 1.029777122589365, 151588000000
-0.16013561216025896, 4.763053820717746, 1.0304005455844347, 151594000000
0.020678312805837692, 4.679618620158542, 1.0306538295556804, 151599000000
-0.04806553675635555, 4.72837705464274, 1.0317532276879398, 151604000000
-4.996215498416515, 4.615042122133042, 1.0296803567553476, 151609000000
-3.936579166506011, 4.734292764465215, 1.0286357778016848, 151614000000
0.156234863696996, 4.666852160570527, 1.0284342772285608, 151619000000
0.05729030383223832, 4.6924182433154265, 1.0285176015661497, 151624000000
-0.019796579130511926, 4.654803116572319, 1.0293336556382144, 151629000000
0.12558606343820578, 4.491053756488686, 1.0288982935410278, 151634000000
-0.2470378369786913, 4.739237910028191, 1.029555365313284, 151639000000
-7.0468403308407845, 4.6804658364622584, 1.028961499878147, 151644000000
0.055154134928613534, 4.646007560001991, 1.0292964455441826, 151649000000
0.13569431651794522, 4.506847755834256, 1.0294825556064493, 151655000000
-0.18750961227160176, 4.710868157391113, 1.0295109251887948, 151660000000
-0.005012921688029441, 4.5905006036844895, 1.0299245483308876, 151665000000
0.00415203623573468, 4.636446607880912, 1.0306416236506006, 151670000000
0.06230685324127746, 4.588056537159713, 1.0310644469066097, 151675000000
-7.2451693350936655, 4.6823596752332755, 1.0279220830700857, 151680000000
0.20993713339170178, 4.560365813998593, 1.0276045792921769, 151685000000
0.08640664569038155, 4.6265155787277195, 1.027659183629502, 151690000000
0.13779547502613548, 4.504255285816886, 1.0289056425713048, 151695000000
-0.13970422212749986, 4.634888566880394, 1.0286106808253275, 151700000000
-0.037655520205939805, 4.58666306691614, 1.0292006062289651, 151705000000
-6.471896841873171, 4.581273103188167, 1.0286813035433986, 151710000000
-1.8515786041225426, 4.4942469002598315, 1.0284002879372256, 151715000000
0.11989372890680335, 4.584847852974855, 1.0289722210948666, 151720000000
-0.027614447887062528, 4.507381879437677, 1.029570937169174, 151725000000
0.040283709530979726, 4.565762196355362, 1.029662284671951, 151732000000
-0.056375539361095545, 4.567928010856559, 1.0297159067793304, 151737000000
0.13552099277025312, 4.422783650221756, 1.030051986840555, 151743000000
-7.289736041000197, 4.648390746982587, 1.0299164420160167, 151748000000
0.15497894518904148, 4.5453871181211305, 1.0305114367041355, 151753000000
0.020944457356708725, 4.5036341764078465, 1.030360712557832, 151758000000
0.1849843404599113, 4.35027966503838, 1.0301924959847597, 151763000000
-0.1892114145200373, 4.595534700275705, 1.0310509845226086, 151768000000
-0.020358150225034743, 4.526302618788776, 1.0319232784014556, 151773000000
-0.004956635828924691, 4.53152501549216, 1.0318068174828139, 151778000000
-8.860234313981415, 4.457878089454575, 1.0305842934307499, 151783000000
0.11623710445185587, 4.482402220772698, 1.0305757933813489, 151789000000
0.04150664660010367, 4.502415313945711, 1.0316203324232116, 151795000000
0.002905978592292845, 4.5018245817141755, 1.0318711129508642, 151800000000
0.16674035710621313, 4.3469118501355375, 1.0314135435216198, 151805000000
-0.16474356136504192, 4.595858611340029, 1.0310276051542344, 151810000000
-7.1030735973094625, 4.483298498575904, 1.030557525363012, 151815000000
0.13480971889011845, 4.465517791444986, 1.0311973925893156, 151823000000
0.04405221524202052, 4.394795667606403, 1.0307040933840037, 151828000000
-0.292262825649836, 4.517160921000246, 1.0306946850917897, 151833000000
0.39327293210791575, 4.337720534042238, 1.030949808833491, 151838000000
-0.023065232171231662, 4.416816867000215, 1.031501326807245, 151843000000
-7.49311474621666, 4.666197353939611, 1.031474681047218, 151848000000
0.5468347886179254, 4.232782574127146, 1.031177550085421, 151853000000
0.0972178701940001, 4.368683504705163, 1.0301662525123898, 151858000000
-0.45655250868716146, 4.650597188859402, 1.0305712350485743, 151863000000
0.07497970452838515, 4.403126866714493, 1.0309965446959575, 151868000000
0.2524735367368319, 4.285938491520904, 1.0313848242437686, 151874000000
-0.7663402505046231, 4.668965579992032, 1.031505249968411, 151879000000
-6.91017961039749, 4.433103072742302, 1.0286331741892965, 151884000000
0.4927549901202308, 4.18969382029919, 1.0296925895173759, 151890000000
-0.36255380759613054, 4.513767809768705, 1.0304407795003332, 151895000000
-0.17635080231224468, 4.43768473363725, 1.0310729022085283, 151900000000
0.07899806968504468, 4.376084151767217, 1.0312886384103337, 151905000000
0.0076249890208910966, 4.37750080160031, 1.0313908134190928, 151910000000
-7.5962043166194455, 4.396430895857378, 1.0297268077482327, 151915000000
-0.777352677422513, 4.21773917484483, 1.030829629137599, 151920000000
-0.136687792480636, 4.497933661455723, 1.0317388429689514, 151925000000
0.12251919690276705, 4.3416818487068145, 1.031702057008714, 151930000000
0.044781748919695025, 4.341362288323149, 1.0318799074610483, 151936000000
0.5115651448843319, 4.079333994219937, 1.0320975033517248, 151941000000
-0.5198479994611503, 4.591449603512679, 1.0330007064155362, 151946000000
-5.982327688825491, 4.342680453046464, 1.0324000118933585, 151951000000
0.7361011436373943, 4.017731683517026, 1.031346875720662, 151956000000
-0.22145799971489774, 4.535594180404533, 1.0310604574773765, 151961000000
0.2672927696085558, 4.20707928974332, 1.0320172962274616, 151968000000
-0.007304138054116029, 4.232288924983103, 1.032404465986459, 151973000000
-0.43546084093695675, 4.4798712433903365, 1.0323639306228585, 151978000000
-6.419579602826863, 4.224979436689888, 1.0310747693151794, 151983000000
-0.2830553482620021, 4.204804340040878, 1.0307071994778645, 151988000000
0.09901367763439799, 4.261788130830182, 1.0313748368916016, 151993000000
0.016160522206286585, 4.2519081579851, 1.032930467859318, 151998000000
-0.1906393155229561, 4.375316567158951, 1.0342184878994694, 152004000000
0.201247630193788, 4.223443564714537, 1.0337069216392112, 152009000000
0.03512025594895386, 4.276673585927643, 1.0343210547732247, 152015000000
-7.155867086346623, 4.265408363997036, 1.0339183623343424, 152020000000
0.16071777757472486, 4.232957458781237, 1.034846223377005, 152025000000
0.06048291488925936, 4.29358921424042, 1.0353055365311112, 152030000000
0.07960921947759148, 4.217987214188288, 1.0345648856123582, 152036000000
-0.023634608334534957, 4.238326024472256, 1.0354024798558912, 152041000000
-0.2286655966294445, 4.343283333907796, 1.0358148470382067, 152046000000
-6.415594505658975, 4.143173812286509, 1.0355751438048, 152051000000
-0.21842135417381023, 4.157228005881788, 1.035318315667317, 152057000000
0.07617266587456774, 4.174787685587942, 1.035187061868707, 152062000000
-0.19173324327575073, 4.319932664430223, 1.035289192090504, 152067000000
0.28729412361529594, 4.121706984737682, 1.035498778712628, 152072000000
-0.03105542362031708, 4.190227378629489, 1.036436068024798, 152077000000
-0.04850418309380196, 4.169248724513596, 1.0362936458791576, 152082000000
-6.05633276888622, 4.3037547960746485, 1.0350454572745502, 152088000000
0.39549283146391856, 4.0132364398741265, 1.0346312316719706, 152093000000
0.009449936241386256, 4.1413950970333735, 1.0355388380015769, 152098000000
-0.012238951056001677, 4.139723397897895, 1.036340978034331, 152104000000
-0.13830813071650763, 4.281027949073862, 1.036462376342099, 152109000000
0.3891761767234755, 3.9787270489401987, 1.0367016109281018, 152115000000
-4.428268312576597, 4.160633725733541, 1.0352618707776418, 152121000000
0.07837837515532324, 4.096889570827036, 1.0355883092686935, 152126000000
0.08254607568735889, 4.186431974368344, 1.0355386459253886, 152131000000
0.051023076037578864, 4.100870551809087, 1.0357270973224655, 152137000000
-0.06064764039339387, 4.103293635519456, 1.035111526194103, 152142000000
-0.004774802539117898, 4.121765295318202, 1.036231403280964, 152147000000
-5.053580236108821, 4.172306019803407, 1.0359650289371447, 152155000000
0.2116717828074162, 4.087206247694122, 1.0360036460630977, 152160000000
0.0621247380201768, 4.07793959554811, 1.035595599185928, 152166000000
-0.009106250270564201, 4.062063733007494, 1.0359033276869143, 152171000000
-0.131627342708766, 4.198942231740516, 1.0366101835876724, 152176000000
0.24817487371701266, 3.985093604688287, 1.0367320365005843, 152181000000
-0.018442132259549087, 4.1043177023355195, 1.0373668430289429, 152186000000
-8.88135771914226, 4.14492015840375, 1.0361152289049147, 152191000000
0.10864114335580694, 4.0535641101344755, 1.0353377737333895, 152196000000
-0.0021440214389398388, 4.037868859306561, 1.0356554239502809, 152201000000
0.014728075892355006, 4.007308319744705, 1.0356670551654696, 152206000000
0.04438901099227989, 4.054763817324672, 1.036157244344176, 152211000000
0.00035176299196120614, 4.032480394150242, 1.036793008546485, 152216000000
-5.894697367481663, 4.077936216958104, 1.0349024494234167, 152221000000
0.06121802011718998, 4.025938899899122, 1.0348963123080503, 152226000000
0.08293709542609731, 4.05605979145908, 1.034482444261759, 152231000000
0.02898158457270545, 4.020824524710487, 1.0346542754825987, 152236000000
0.0018417965383754915, 4.012490123503936, 1.0346638676602258, 152241000000
-0.011240648281389121, 4.028013018507992, 1.0346898739717831, 152246000000
-0.04693797619971507, 4.033689437345583, 1.0344402676309667, 152251000000
-7.0629793790821385, 4.072420638762625, 1.0331286190828026, 152256000000
0.0928828485993137, 3.962985749365475, 1.0335935158871032, 152261000000
0.09994096300786658, 4.016652347467081, 1.0329838551932684, 152266000000
0.01650657451293739, 3.9632070553462513, 1.03295228376252, 152271000000
-0.005874163745010021, 3.995070806598147, 1.0332307922053814, 152276000000
-0.022357089891319005, 3.9935447422777273, 1.0333730466147546, 152281000000
-0.008886257029243337, 3.980119416421818, 1.0334906129163162, 152286000000
-8.84195923086775, 4.0265013512849075, 1.0325463350047415, 152291000000
0.09287088212796876, 3.93875968205491, 1.0314916110196408, 152296000000
0.09711946240310221, 3.9499708895804537, 1.0319608821093496, 152301000000
0.02689136896642237, 3.9271952145804425, 1.0324476230522426, 152308000000
0.04357992897709945, 3.9695939912947154, 1.0323568348713579, 152313000000
0.005128425105654449, 3.9555998332107074, 1.0326622191091428, 152318000000
-6.703643143954421, 3.9479520922853353, 1.0313545517380753, 152323000000
-0.24215271266240604, 3.9075906743590214, 1.030980788915717, 152328000000
0.06033436808632046, 3.882536278300141, 1.0312157513263616, 152333000000
0.028371085926087863, 3.907163077492719, 1.0315029577631087, 152339000000
-0.03527236081550633, 3.9377705650245196, 1.0315981064886608, 152344000000
-0.012646006456667079, 3.9355021373049586, 1.032068630034505, 152349000000
-0.03183879969254496, 3.90939102311035, 1.0320311433689713, 152354000000
-7.15042375464817, 3.926414088495757, 1.030335505229073, 152359000000
0.18277951484800323, 3.890159495509224, 1.0305546883591896, 152364000000
0.052675763121110865, 3.8707826642217564, 1.0306853801050677, 152369000000
0.02463221066696054, 3.8814306470950464, 1.031190312204055, 152375000000
-0.016855164499195188, 3.850383358440019, 1.0308549911249567, 152383000000
-0.0338448497522689, 3.9033485800197982, 1.0315252173686067, 152388000000
-7.122877312012541, 3.871924808716045, 1.0306785001445102, 152393000000
0.17480292410925724, 3.8503793406922635, 1.0302340531634062, 152398000000
0.0723337027402725, 3.8115087730377235, 1.030251417295011, 152403000000
-0.006861224126749383, 3.842509293204492, 1.0306063740362053, 152408000000
-0.033194646737944644, 3.827089278790007, 1.0302393296822832, 152413000000
-0.015810903665962883, 3.833021814141533, 1.0309003967318384, 152418000000
-0.014925317199181906, 3.834252934717448, 1.0318101308003356, 152423000000
-7.115134605955388, 3.842287901264876, 1.0300730443595614, 152428000000
0.11981055379288097, 3.80599543952808, 1.030137409843395, 152433000000
0.07621477053156658, 3.8219883602083753, 1.0297399778213454, 152438000000
0.09170917252280004, 3.7231014485201133, 1.0297088748914525, 152443000000
-0.18474945389473552, 3.845470723259317, 1.0298191541721162, 152448000000
0.010421361854795495, 3.7937114986944342, 1.0312869541994947, 152453000000
-0.014435065251088116, 3.882189659983715, 1.0316907827152975, 152458000000
-7.073854241388717, 3.861548957597939, 1.0301521293381795, 152463000000
0.19211840514424308, 3.697419009728266, 1.0296034861988619, 152468000000
-0.0513257624871092, 3.7884606186348644, 1.0295545375973973, 152473000000
-0.03709256237629349, 3.7372729444545225, 1.0304497668052632, 152478000000
0.010055125186700441, 3.8085893753795865, 1.031524209152618, 152483000000
-0.0007309511208290313, 3.82020171172434, 1.0315633464366771, 152488000000
-4.960608237664445, 3.6904333942118637, 1.0284529248520191, 152493000000
-1.161091014688795, 3.8278380247880226, 1.0273772564154953, 152498000000
0.17761805994129531, 3.736093538359867, 1.0271878683467048, 152503000000
0.08922136053267625, 3.7570401828278435, 1.0283092600394041, 152508000000
0.13290743197532204, 3.6203096353869735, 1.0285911203442124, 152513000000
-0.2563412084221205, 3.8396732706492767, 1.0289198010891136, 152518000000
0.031258133000498324, 3.768509098218191, 1.0290586318284276, 152523000000
-7.077847857273562, 3.7672104961825275, 1.0278209109489669, 152528000000
0.10435876576207542, 3.6836716354180705, 1.028195563834347, 152533000000
0.04282152842533392, 3.724182316274974, 1.0285695692413777, 152538000000
0.030689290099909016, 3.7566478489806867, 1.0297067977860082, 152543000000
0.11367664597879358, 3.651573828050062, 1.029790253609792, 152548000000
-0.13366672520418685, 3.741828976431872, 1.0291555325619985, 152553000000
-0.08797653019464928, 3.6780689583049155, 1.0292275998831972, 152558000000
-7.073998050868205, 3.7316823272064608, 1.0282948229661282, 152563000000
0.18827001722597286, 3.7143110469091054, 1.029239871360327, 152568000000
0.22203811858594344, 3.564486069895492, 1.029273252274573, 152573000000
-0.13372348104761833, 3.7518567161969125, 1.0296432730935947, 152578000000
0.023404103296795913, 3.681452443912274, 1.0296372516703678, 152583000000
0.009476673473448313, 3.700675385455599, 1.0295430230050044, 152588000000
0.009041836636724362, 3.6458040192466568, 1.0296598262328136, 152593000000
-7.091826574211757, 3.667082290760456, 1.0291666064462306, 152598000000
0.1935273066971321, 3.7083457549565924, 1.029500755159229, 152603000000
0.05013866276106044, 3.675912135692371, 1.0299208678468603, 152608000000
0.2085335968601808, 3.5246657400216805, 1.0297170556383126, 152613000000
-0.3901591326742903, 3.630398930161286, 1.029563768675445, 152618000000
0.21677644668748838, 3.814434987350136, 1.0311248828338102, 152623000000
-4.2403594582676565, 3.5596987365319728, 1.028582199722156, 152628000000
-1.4161061666160848, 3.615748878543311, 1.0292732622851475, 152634000000
0.5492590595919445, 3.658947022566522, 1.0303960988292973, 152639000000
0.06681587747409677, 3.5448464699576316, 1.0295858391143873, 152644000000
-0.5076198068437382, 3.5956186415518046, 1.030154953560414, 152649000000
0.3778719430083006, 3.67995903289696, 1.0315677363088918, 152654000000
-0.082681004919644, 3.631797203794585, 1.0313595949315104, 152661000000
-7.317069419916656, 3.5787337671490858, 1.03213467760148, 152666000000
0.538800017755688, 3.6431303562207926, 1.0335077105823733, 152672000000
0.05388757888724436, 3.488782396997752, 1.0329340902702147, 152677000000
-0.42964971088386616, 3.5719983859249194, 1.0335752435571182, 152682000000
0.2443753906123029, 3.687472379043947, 1.0350100690728639, 152688000000
0.11349940927724846, 3.4807334174901747, 1.0353777359765506, 152693000000
-6.216550096183043, 3.595392910505307, 1.0350116021359848, 152698000000
0.2006067568824291, 3.5605469050928793, 1.0363359067589564, 152703000000
0.3543616763615651, 3.6546054478957006, 1.0360580972514093, 152708000000
-0.018965684986827484, 3.525980375918861, 1.035598603199742, 152714000000
-0.01406480513547535, 3.50486285385964, 1.036591261463418, 152719000000
0.02614287070864676, 3.533416443866071, 1.03694226937356, 152724000000
-0.1721723071301587, 3.4790288319460894, 1.038854066895704, 152729000000
-5.6069297256706045, 3.685170268319179, 1.0380857274276913, 152735000000
0.1097770977448359, 3.475016292522494, 1.0372829476903032, 152740000000
0.03985678710107405, 3.487664320883327, 1.037271088606014, 152745000000
0.05607382326376675, 3.5177652276690896, 1.0385826432832945, 152752000000
-0.003212214219524225, 3.465520362131565, 1.039320508413435, 152757000000
-0.025081722683443074, 3.481601320426938, 1.0392551066311342, 152762000000
-3.446087115619522, 3.540368454075245, 1.0388014814017137, 152771000000
0.03194352431962639, 3.4638145932932636, 1.0386645115529785, 152777000000
-0.010425861774610384, 3.447778173344025, 1.0386623506028143, 152782000000
-0.1846820495160204, 3.4277487870568186, 1.0399271095135423, 152787000000
0.1957754836358176, 3.5197245887412776, 1.0402749231309636, 152793000000
-5.240018544338286, 3.4498326223369613, 1.0397826448347562, 152798000000
-1.3943367031488993, 3.408445796728624, 1.0394711712244449, 152805000000
0.2945836848245014, 3.523771414704705, 1.039586513675485, 152810000000
0.010283548480972755, 3.3892068726809015, 1.0395224742499451, 152815000000
-0.24454313722096954, 3.393465042481217, 1.0404924547288732, 152820000000
0.24379129808228348, 3.506176922988396, 1.0411638685124438, 152825000000
-0.03597844178781664, 3.411005106101357, 1.0413126413987102, 152830000000
-7.266648725705538, 3.347905455723145, 1.0399365473735418, 152835000000
0.27626974178356317, 3.4743480353065976, 1.0401661053893265, 152842000000
-0.0041406950012803385, 3.3456326410433945, 1.039848362920572, 152847000000
-0.1992378101788695, 3.3284484469071285, 1.0412221570514253, 152852000000
0.2507328324576128, 3.473011249005319, 1.0416148691439333, 152857000000
-0.03636031830194566, 3.372640282591549, 1.041511786782385, 152862000000
-6.889458335971186, 3.3108462630513205, 1.0406022636777732, 152867000000
-0.0647947113527541, 3.440056231982072, 1.0407130855668922, 152873000000
0.12495596876872947, 3.357606380512068, 1.0409694889560908, 152878000000
-0.23545722781874906, 3.320653706493477, 1.0407966357702538, 152883000000
0.045477597451348856, 3.4202051883889517, 1.0417226131931066, 152888000000
0.2030526062767676, 3.4064261467699937, 1.0416149373920927, 152893000000
-0.02046173667701527, 3.3350857394002316, 1.0419248297540864, 152898000000
-7.275500826621886, 3.307399701516279, 1.040733162264512, 152903000000
0.4015402068379405, 3.3928490405400753, 1.0408688526046566, 152908000000
0.029463521102144632, 3.2955127773080175, 1.040646524437066, 152913000000
-0.2227480484343915, 3.295344685709104, 1.0413308449049503, 152918000000
0.023915726704762916, 3.3476649316752214, 1.0420595013687206, 152923000000
0.189098811609119, 3.3302666882071814, 1.0420398248489586, 152928000000
-0.22394224119212394, 3.254183902646425, 1.0418393258478391, 152933000000
-7.050315206334028, 3.3625281754884475, 1.041289551981479, 152939000000
0.28893263641113986, 3.319136764173277, 1.0409080264651245, 152944000000
-0.2216649601430628, 3.234008279819238, 1.0408646803995576, 152949000000
0.204770044484015, 3.330576159101935, 1.0414267851461054, 152954000000
0.03179288539905356, 3.2849748289015794, 1.0412481351763534, 152959000000
0.4702668753175975, 3.355931251725616, 1.0378320486901615, 152964000000
-7.2260055931963745, 3.245156467863087, 1.0356656353684597, 152969000000
-1.4317625683418609, 3.222030397086314, 1.0346395392983723, 152974000000
0.7042566589112637, 3.2879354076892384, 1.0299513381549792, 152979000000
-0.027980009276206558, 3.216394633516675, 1.0258481197856726, 152984000000
-0.7985102553692376, 3.1551958688244945, 1.0252097417071966, 152989000000
0.5572816017250839, 3.195658487306027, 1.0228577018112996, 152995000000
-0.08405147951656285, 3.2167011447712186, 1.0195053183522649, 153000000000
-7.707159151245917, 3.1416521179803154, 1.0186457198711172, 153005000000
0.8551460040763638, 3.182789718708326, 1.0177615421475878, 153010000000
-0.039416110950834554, 3.180932448962079, 1.0143462349873764, 153015000000
-0.46878781673247344, 3.1047321071852183, 1.014032124068925, 153020000000
0.6749492623793611, 3.1177865721994653, 1.0142020500400954, 153025000000
0.05605467682998305, 3.1606943231629283, 1.01159897578238, 153030000000
-0.6245542178465896, 3.1247448663988786, 1.0117982884149652, 153035000000
-4.583776896903178, 3.1572248709272706, 1.0097513828808484, 153041000000
-0.512822747842567, 3.0732565864495647, 1.0088097881924478, 153046000000
-0.05950685686875988, 3.076750552364354, 1.0099319555554203, 153051000000
0.5676303953914529, 3.0442068536051514, 1.0105205111132398, 153056000000
-0.3048529964326164, 3.064666736041852, 1.0084907711791196, 153061000000
-0.09600844778729352, 3.0639544269319803, 1.0100486589797395, 153066000000
-8.686136010518707, 3.114658632161548, 1.0106650443540655, 153071000000
-1.0098269428536102, 3.062942565273277, 1.0100011054720257, 153076000000
-0.47568005912910527, 3.122618745595143, 1.0105096432695653, 153081000000
-0.01437847799738607, 2.9932598147491065, 1.012056035112271, 153086000000
0.3666946326133098, 3.0534433862263, 1.013216276680552, 153091000000
-0.2960337491965115, 3.113694227963293, 1.012297246910302, 153096000000
-0.1572978994035956, 3.092812886962573, 1.0135966330211874, 153101000000
-7.021193553259883, 3.037302578356761, 1.0136365277555452, 153106000000
0.3858491624920649, 3.018092984352001, 1.0153724760161582, 153111000000
-0.20390729491770038, 3.0766533964190628, 1.0151993067243794, 153116000000
-0.08703770212731433, 3.0249849776806164, 1.0160081193303334, 153121000000
-0.0021044794510285576, 2.976403874180482, 1.017066576238169, 153126000000
-0.07920905544186277, 3.041103686024131, 1.0190307706671895, 153132000000
0.49613165469055803, 2.9842231484244013, 1.0203011757119158, 153137000000
-7.562739986772181, 3.0976065343205006, 1.0204628549504875, 153142000000
0.1924038801140622, 3.004425340568651, 1.0214548011861766, 153150000000
0.016768983887733308, 2.9677365511211775, 1.0225733973247741, 153156000000
-0.02043950413378272, 2.9924795556576904, 1.0254709116935175, 153161000000
0.03567586250122884, 3.0587161335082342, 1.0276359652796316, 153166000000
0.055670500112974225, 3.2078532240305444, 1.0282633467853086, 153171000000
-7.089223375558533, 3.0521037830325874, 1.0262937512355315, 153176000000
-0.012379999838326723, 3.0155182644378944, 1.0266113503465304, 153181000000
0.05954762077919967, 3.017292430125213, 1.0274468880841994, 153186000000
-0.0021731080888292217, 3.010360101924374, 1.028412077678267, 153191000000
0.01898285978586839, 2.9887699019397527, 1.028128962768896, 153196000000
-0.03526498769619718, 3.003194075687562, 1.0285323668583073, 153201000000
-5.575171701104827, 3.023475303164342, 1.0270019225466471, 153207000000
-0.31752058011777645, 2.9647154846154673, 1.0266080842802365, 153212000000
0.10691492980110447, 2.9671146253211327, 1.0270751343864886, 153217000000
0.0019720493161285322, 2.9643782498874622, 1.0278070557509398, 153224000000
0.002495138002453344, 2.973204416742593, 1.029014626615442, 153229000000
-0.030585716433230027, 2.9744113984707448, 1.0287323762910479, 153234000000
-0.04610581552309603, 3.0087960635204825, 1.0287682964492026, 153239000000
-7.123582104323276, 2.993894869957243, 1.027317370595667, 153244000000
0.16669793155171467, 2.946167289160015, 1.0267208346729941, 153249000000
0.04181267760275044, 2.955024345055249, 1.026802790542729, 153254000000
0.018988054283809522, 2.940761507773436, 1.0280429932984783, 153259000000
-0.048481983405658444, 2.9590467943590095, 1.0284768788664578, 153264000000
0.00677460623142373, 2.9523791100686054, 1.0288062088945877, 153269000000
-5.223974055383121, 2.953469511402735, 1.028767945991628, 153274000000
-1.8879353003104224, 2.9080349082609365, 1.0274160787270867, 153279000000
0.11458312182433444, 2.9087910308636973, 1.026959283240376, 153284000000
0.0590165682359649, 2.9292914608416982, 1.0274530191197515, 153289000000
-0.0443999157224418, 2.9085314926596983, 1.027635556490424, 153294000000
-0.03040285072659507, 2.9201472469739236, 1.028651155035142, 153299000000
-0.05899349009998672, 2.926155053797585, 1.0288142853964286, 153304000000
-6.726980709734755, 2.923366533245561, 1.028476510011023, 153309000000
-0.2647398761054504, 2.8746553502650527, 1.0276649891171048, 153314000000
0.11119973115372157, 2.90161918368621, 1.027352230460355, 153319000000
0.07538892911518577, 2.8873022289836974, 1.027798560958358, 153324000000
-0.005309019921753054, 2.8608458090536533, 1.0282404066218993, 153329000000
-0.02738325079942837, 2.8665410007323593, 1.0291720390074426, 153334000000
-0.05286563300719763, 2.8715460273979834, 1.0302775840789213, 153339000000
-5.919816891601694, 2.906521520433015, 1.0303226743802791, 153344000000
0.11300010230951128, 2.8239570176942395, 1.0304203091917323, 153349000000
0.03423161428993283, 2.8140688615352443, 1.0308556635557822, 153355000000
-0.03000887534879454, 2.8149934008751605, 1.0318247209749034, 153360000000
0.11375628918561895, 2.9139735831770306, 1.031096800030426, 153365000000
-0.12466104539012997, 2.85683206970616, 1.0313623509045724, 153370000000
-3.67717016871244, 2.821565632701463, 1.0313189345348424, 153376000000
-1.8663071969954186, 2.7984695053102704, 1.0311996727807304, 153381000000
0.6260776579996578, 2.8062183014125357, 1.0312742214986121, 153386000000
-0.559261851443722, 2.847481360981457, 1.029046811919935, 153391000000
0.03621203911696691, 2.785935282069352, 1.0292450081380689, 153396000000
-0.02190853954679739, 2.812794079882224, 1.0288703021873735, 153401000000
0.2780846442344656, 2.8085672677054245, 1.030018787623628, 153406000000
-8.444545855869613, 2.8869974221809587, 1.0277360979389647, 153411000000
-0.5979016309144475, 2.769323556059102, 1.0275705242015434, 153417000000
0.07809631652060953, 2.7341874936228843, 1.0287089096881514, 153422000000
0.5718783809212387, 2.774310323419376, 1.028173733194303, 153427000000
-0.6351507728127667, 2.7624338894011644, 1.0260129924851187, 153432000000
0.00858564020125957, 2.803093876811979, 1.0260478044445336, 153437000000
0.3872362510339868, 2.726296232116745, 1.0260310955360694, 153442000000
-8.733326125729022, 2.8017375830834728, 1.022778455845859, 153447000000
-0.601067028074157, 2.7164835920588914, 1.0227201519671794, 153452000000
0.07477169758615829, 2.6750054813567927, 1.0233199504799582, 153457000000
0.5817077335878615, 2.7482471191756743, 1.0220716656711555, 153462000000
-0.6172648137755685, 2.714934646572175, 1.0203694817104736, 153467000000
0.03951587813284663, 2.702960223829489, 1.0213311872072544, 153472000000
0.5336148130103621, 2.715516625979708, 1.0209551642393673, 153477000000
-6.972574528466501, 2.7339378037430366, 1.0182695394364398, 153482000000
-0.3982492447462412, 2.636936074747778, 1.0184284631246154, 153487000000
0.577011497945614, 2.639368497406705, 1.0188937206366175, 153492000000
0.12600205652978844, 2.6642266375569426, 1.0168085673698868, 153497000000
-0.5986481903017871, 2.700724115738132, 1.0164211419440832, 153502000000
0.04143560678851101, 2.629587136225586, 1.0181412970505852, 153507000000
-5.232888402138201, 2.658145051113194, 1.0162202515375605, 153512000000
-0.20670154147094627, 2.703875841658054, 1.0137607622626374, 153517000000
-0.4883339755883219, 2.620344822352937, 1.014404106527702, 153522000000
0.049096263072577334, 2.5563323325456593, 1.014852358466239, 153527000000
0.5280840015815844, 2.627861636365418, 1.0138340901333744, 153532000000
-0.07811879542103778, 2.65319094173257, 1.0119428664098384, 153537000000
-0.4086781067192456, 2.597258166059915, 1.0132553889991351, 153542000000
-6.435201869761193, 2.6518578617632715, 1.0132001321891615, 153548000000
-1.2469292131791971, 2.6033807739482575, 1.0108061718996089, 153553000000
-0.01616021764187282, 2.538856932704675, 1.0116653844449899, 153558000000
0.5130017010135667, 2.594627251287641, 1.012073229275927, 153563000000
0.028488811360431656, 2.613550890691904, 1.0097455420125891, 153568000000
-0.5924592540205151, 2.542624441709948, 1.010078236580619, 153573000000
-3.634914506124876, 2.5919374857472306, 1.0101612386148575, 153581000000
0.09032062959535886, 2.587195221976729, 1.0085288777806858, 153586000000
-0.48284696872612315, 2.5134655938852344, 1.0095849364475398, 153591000000
0.4935428273241376, 2.537705515823166, 1.009963068334614, 153597000000
-0.09348962916933115, 2.5411949599387587, 1.0086620813197493, 153602000000
-0.6353953411588625, 2.520412885058496, 1.0094958962431073, 153607000000
0.34348334267049024, 2.5234705680642566, 1.0101722240948934, 153612000000
-8.576432949778129, 2.5643674784153134, 1.0096254719523645, 153617000000
-0.3471491991523547, 2.503341993617713, 1.008776529159362, 153622000000
0.09941375944734107, 2.494859113251138, 1.0104107158706928, 153627000000
-0.03920001011945977, 2.606692278785164, 1.0093487229388483, 153632000000
0.07976248505225583, 2.4269754209298187, 1.0109544793776333, 153637000000
-0.08148373656445604, 2.4823808537702186, 1.0123272512323054, 153642000000
-0.1233663421463406, 2.6517728064365946, 1.0148012302799883, 153647000000
-7.075174863046174, 2.534900999125124, 1.0147015562353443, 153652000000
0.3235874779306824, 2.376491235902485, 1.0158162492601415, 153657000000
-0.26753487616867155, 2.635628626119789, 1.0171771761861936, 153662000000
0.055728735741478214, 2.501331469585642, 1.0184738723029234, 153667000000
0.16482679864063743, 2.391251388478649, 1.0194357378859698, 153672000000
-0.025976676712071427, 2.46711481916983, 1.0197733801530702, 153677000000
-5.389093095916103, 2.63649486811346, 1.020448626810236, 153682000000
-1.8058123226451375, 2.4886876202105825, 1.0206978178254835, 153687000000
0.3066029030705674, 2.3155611277154096, 1.0215157023230619, 153692000000
-0.21384986252529736, 2.5945689211552487, 1.0226188344431857, 153697000000
0.0945718635840743, 2.466599783983768, 1.0235281028728869, 153702000000
0.015269956068250136, 2.4842262454009734, 1.0241844872389272, 153707000000
0.13422561592535648, 2.33083374677729, 1.0246282557746256, 153712000000
-6.862389937219655, 2.578985333983498, 1.0242675241035755, 153717000000
-0.2711178614411117, 2.42133600057024, 1.0237052560743862, 153722000000
0.28222596659968485, 2.295162562294844, 1.0243006528265932, 153727000000
-0.20900049785700617, 2.561138630524868, 1.0252411043123069, 153732000000
0.059001086638338945, 2.415560210624671, 1.0261067633732803, 153737000000
-0.021285794331322678, 2.483759853989856, 1.0266685023167283, 153742000000
0.1476798038264311, 2.300216849420292, 1.0272233477182298, 153747000000
-8.992214905789549, 2.6947758621079716, 1.0271103327545252, 153752000000
-1.2182763252193345, 2.39478296521541, 1.0267647058485176, 153757000000
0.24738369246461459, 2.257318556923601, 1.0266845357836034, 153762000000
-0.2633517851787413, 2.565798760936685, 1.0266853618783744, 153767000000
0.15619684259412728, 2.4004904780611733, 1.0241480019399039, 153772000000
0.038569592924940097, 2.273671374632098, 1.0252005238873865, 153777000000
0.46615234575266795, 2.4700106012615777, 1.0238625798753387, 153782000000
-6.97237358120182, 2.3285409167561086, 1.0203553978691842, 153787000000
-0.5027952601562419, 2.350869554642959, 1.0208984246837822, 153792000000
0.7241930235831693, 2.3788653185441833, 1.0177267822689353, 153797000000
-0.16247694276691943, 2.343219633363282, 1.0144552395806707, 153802000000
0.007687881529645071, 2.363570999585808, 1.0115155323008844, 153807000000
0.058402308437730976, 2.370373108059908, 1.0085791973817368, 153812000000
0.012454373575792592, 2.3348909064212773, 1.0060941775878802, 153818000000
-5.826125792979015, 2.294489019612471, 1.0034659590853388, 153823000000
0.08025842489803392, 2.2588673396315007, 1.0016725531413007, 153828000000
0.024527640560945058, 2.2654835563587072, 1.0004152434005442, 153833000000
0.017330499169172908, 2.292699088237264, 0.9998842384340061, 153838000000
-0.045041976887589874, 2.2684236899963692, 0.9982553292432181, 153843000000
0.013809647233364229, 2.2748413036033863, 0.9969636390636066, 153848000000
-6.847081938329404, 2.2913859947037767, 0.9956388295806387, 153853000000
-0.1281200327704123, 2.2320431140663914, 0.9949242097883755, 153858000000
0.21406793442719538, 2.181818151306271, 0.9933421176038151, 153863000000
-0.08128994972032311, 2.216424174864519, 0.9917734185406641, 153868000000
-0.007939749878538559, 2.2471494615246956, 0.9912098970583699, 153873000000
-0.354383954801369, 2.211033589549341, 0.9910555450960395, 153878000000
0.32893250608547936, 2.248303574961437, 0.9920736391556533, 153883000000
-5.817223157980575, 2.209247824616767, 0.9913899647633132, 153889000000
0.08899484159945273, 2.2192377134820207, 0.989807515455089, 153894000000
-0.40250355544263633, 2.181881138552876, 0.9913690287404812, 153899000000
0.5763762401030205, 2.1879790828242083, 0.9912935691696203, 153904000000
-0.09512989684643366, 2.2010264948061145, 0.9903971469502796, 153909000000
-0.4702477383241605, 2.1541465567293616, 0.9918999717460251, 153914000000
0.440935290852774, 2.2248963655528753, 0.9928465366057136, 153919000000
-6.973216829224657, 2.229771355968997, 0.9923957581571886, 153924000000
-0.3257629396081045, 2.16628245210796, 0.992797598287237, 153929000000
0.2840456325010131, 2.1403391541737435, 0.9959276121629286, 153935000000
0.18890406815058985, 2.1724513742605898, 0.996650631012857, 153940000000
-0.44606603439902986, 2.1414099589763267, 0.9975089401471675, 153945000000
0.019774396515406786, 2.180180125269774, 0.9980956498534529, 153950000000
-5.477488350952114, 2.108830080315656, 1.0007838300838272, 153955000000
-0.591175118035384, 2.278330107441754, 1.001200064620321, 153960000000
0.1200564933368348, 2.101675010695954, 1.0024708981749362, 153965000000
0.025794390829911234, 2.0618767095518433, 1.0076014037523389, 153970000000
-0.15443533880686833, 2.1576212465743274, 1.0100212772971155, 153975000000
0.18606488555154815, 2.33962996369536, 1.0117970701310386, 153980000000
-0.08292920124695476, 2.1414329683826887, 1.0140255854987552, 153985000000
-7.1853093163469675, 2.045776307679295, 1.0161822248062113, 153990000000
0.2244753232018595, 2.322136720731136, 1.0193903710182637, 153995000000
0.025231375557357126, 2.184228377867539, 1.0200269462047065, 154000000000
-0.27017345814723726, 1.9952927823996514, 1.0225732427848246, 154005000000
0.21052676767191025, 2.3300888052565494, 1.0247516672111119, 154010000000
-0.02160939903039181, 2.1333516221350934, 1.0252386344533773, 154015000000
-0.3163437107561556, 1.9786927174729851, 1.0268531883472645, 154021000000
-4.214733393598779, 2.261822520058793, 1.0282806793661405, 154027000000
0.06184137858829737, 2.1105225553519986, 1.0288192495595156, 154033000000
-0.20897578334631192, 1.9881027602923054, 1.0305644191144878, 154038000000
0.20505611678686841, 2.2730734070982823, 1.032452026985776, 154043000000
-0.061995447534804876, 2.144648372350365, 1.033123709276114, 154048000000
-0.2520498281740258, 1.9985080037139265, 1.034318399804603, 154053000000
-7.0253060933710945, 2.192074072316309, 1.034904194997981, 154058000000
0.269124556421027, 2.2620077256272477, 1.034407240887334, 154063000000
0.04495239974803982, 2.0597939823193077, 1.0344169927150395, 154068000000
-0.15936723925406046, 2.036155962401385, 1.0359284288456903, 154073000000
0.2301465248776994, 2.255991051851145, 1.0367355640316487, 154078000000
-0.04245076726750181, 2.0780803725364434, 1.036730091833676, 154083000000
0.3531760524553726, 2.0895238071897384, 1.03595572711589, 154088000000
-18.234167827216126, 2.2845180334409982, 1.0353365941528156, 154093000000
-0.15913502083995015, 2.084470794618592, 1.034749275709023, 154098000000
0.06473306055449071, 2.058899338600106, 1.0344464405529592, 154103000000
0.5930495815839317, 2.0928820128551187, 1.0308887874360313, 154108000000
-0.4436054853869882, 2.057716970349785, 1.0263469304692332, 154113000000
-0.17039732289082812, 2.040617027549724, 1.0262659310178248, 154118000000
0.48624725288567383, 2.046608173370698, 1.0246410034972078, 154123000000
-8.83254382034444, 2.0802539468783054, 1.0211454964388587, 154128000000
0.09676541953739447, 2.0332963517505727, 1.0195816771888118, 154133000000
0.06262438283108349, 2.018400540891706, 1.0193141144276683, 154138000000
-0.013264582315274508, 2.026342337876127, 1.0172316878186078, 154143000000
-0.5979017660996756, 1.9827793442053385, 1.0158160936442513, 154148000000
0.5778563974564098, 2.0291756102889122, 1.015831838199279, 154153000000
-5.710014915252817, 2.00711287423241, 1.0136519526476617, 154158000000
-1.9076040333415767, 1.9690700359051803, 1.0117344574971872, 154163000000
0.6063280206604681, 1.891557347871178, 1.011902095245407, 154168000000
0.25351316718421557, 1.904211761284503, 1.0094672758525696, 154173000000
-0.09561940065081702, 2.034549286951552, 1.0079344866849118, 154178000000
-0.48589744500451765, 1.964646762633154, 1.0089474538503416, 154183000000
0.7656755835293368, 1.9347096986262302, 1.0082504693855685, 154188000000
-5.097393720896514, 1.9792011368093076, 1.0048983946663947, 154193000000
-0.6347854599845013, 1.8966978854628316, 1.0050856607994343, 154198000000
0.5854149706175951, 1.8928937607052776, 1.0058727965678378, 154203000000
0.043400516190524506, 1.977500259599643, 1.0044827697686707, 154208000000
0.020263603554448062, 1.8763670741912164, 1.0028902942607858, 154213000000
-0.4974294801137347, 1.8400506388069213, 1.0043454882602236, 154218000000
0.7850399489948858, 1.8342715190366012, 1.0034888394767252, 154223000000
-5.981831145209013, 1.9732461755656394, 1.001435011994493, 154228000000
-0.4969464728449112, 1.884043612170246, 1.0020245972152733, 154233000000
0.7454895891060744, 1.759800910654123, 1.0014431152259966, 154238000000
-0.1251824991349072, 1.9251486633061778, 1.0003816064178055, 154243000000
-0.5449238898900468, 1.8685227321380133, 1.0007541893887322, 154248000000
0.47150817258456473, 1.8522519509923496, 1.0007560380033287, 154253000000
0.03088449928446346, 1.8841257344544968, 1.0002622228665592, 154258000000
-7.534924862029307, 1.9213437872211503, 0.9984262632885612, 154263000000
0.061945190304527796, 1.7818750406649935, 0.9998218513504169, 154268000000
0.6708155792096872, 1.843081293016413, 0.9994463905747921, 154273000000
-0.07392570511198529, 1.8876016642928737, 0.9981773344927967, 154278000000
-0.5261782089513753, 1.8288428029595718, 0.9986647199855352, 154283000000
0.2910315303309568, 1.7942916847226322, 0.9999962787057074, 154288000000
0.18734188274963434, 1.8081775774635138, 1.0006041885454655, 154293000000
-7.0530915710088555, 1.826972313133032, 0.9984414226117135, 154298000000
-0.4483404933177409, 1.80204970572948, 0.9986594848229751, 154303000000
0.4720083521763481, 1.7609298063286538, 1.0000738476593196, 154308000000
0.0990111512879135, 1.7784942039653149, 0.9995144098955373, 154313000000
-0.443137165286769, 1.8707325048191492, 0.9991561429102954, 154318000000
0.2106503152194596, 1.793694374398342, 1.0002822837055203, 154323000000
0.2529771012225997, 1.7809338559228303, 0.9994615308742535, 154329000000
-5.3852456257743455, 1.7970361823708982, 0.9983324286230184, 154334000000
0.5751626565023147, 1.7514421520573165, 0.9988305844755687, 154339000000
0.05653215740767726, 1.7688784721983075, 0.9978223784277453, 154344000000
-0.44266653338376855, 1.7543115455645137, 0.9986679135692902, 154350000000
0.3953891437178599, 1.7965811380598558, 0.9993566277511142, 154355000000
0.1262131186319713, 1.7849223143892206, 0.9995609126641503, 154360000000
-6.4010320714794275, 1.7810803815128664, 0.9993103394212685, 154365000000
0.5628240570964782, 1.757430219126748, 0.999838327859562, 154370000000
0.1923204321421768, 1.74582027849336, 0.9992177384474205, 154375000000
-0.4902273094597408, 1.7259831907221976, 0.9984440466505343, 154380000000
-0.08427640022612634, 1.6831600279668135, 0.9996923623354245, 154385000000
0.5487580626038515, 1.7301244230813593, 1.0005821744263077, 154390000000
-0.0896304022399758, 1.7662056749320005, 0.9994067859973954, 154395000000
-12.639975757886182, 1.7538237945083714, 0.999555206982133, 154400000000
0.39348882067488644, 1.6558486040867515, 1.0006730179858536, 154405000000
0.3927339271383129, 1.6826886147799003, 1.0004861767212163, 154410000000
-0.10265982570750622, 1.7254750677429245, 0.9997694349756772, 154415000000
-0.44478658348672234, 1.6700058249872283, 1.0021165566278483, 154420000000
0.5923216249353528, 1.7003555828064205, 1.0032144877009865, 154425000000
-6.088557152028886, 1.7257784830747598, 1.0018743468921432, 154430000000
-0.47054583538901246, 1.6496633569154968, 1.0024943624215472, 154435000000
0.5841310482704668, 1.6511097892779025, 1.003151688850001, 154441000000
0.0979277116234418, 1.684778759612117, 1.0015908875448796, 154445000000
-0.5888876543106942, 1.6578539582369474, 1.001707003012889, 154450000000
0.2862191737010509, 1.6818987969768253, 1.0030503955542847, 154455000000
0.2398571881745874, 1.6741995184339862, 1.0026773307877004, 154460000000
-7.295812283516588, 1.6949479755403365, 1.0014848894917037, 154465000000
-0.3227314996480618, 1.6219158615819846, 1.0023285816660417, 154470000000
0.7261458495211308, 1.6226686006908597, 1.0024944589008429, 154475000000
-0.10068567395353525, 1.6879799599177918, 1.0024984302878348, 154480000000
-0.49344328778197477, 1.6234693340550606, 1.0026598481379518, 154485000000
0.3727438330890413, 1.6215165170407149, 1.0043947756716345, 154490000000
0.13560561925805387, 1.6654179852124402, 1.0036549134595585, 154495000000
-7.566933340772452, 1.656254791900109, 1.0025463802886616, 154500000000
0.02832796732426389, 1.5815630639339322, 1.0038747783828834, 154505000000
0.5863900739815426, 1.697571476785432, 1.0041252687593711, 154510000000
-0.002220978100780622, 1.5602189047944839, 1.0026098049600984, 154515000000
-0.5478574124945786, 1.5724446185115868, 1.0020206051228506, 154520000000
0.31238565331721946, 1.6167446295939256, 1.0040350105524058, 154525000000
0.24496131243818398, 1.6087169238267813, 1.0036061660856974, 154530000000
-7.127216032002252, 1.6320826894560925, 1.0013736750577384, 154535000000
-0.5572937411664001, 1.5298239325763099, 1.002044330770838, 154540000000
0.41351056011371057, 1.577489799392362, 1.0035789418181178, 154545000000
0.19676951218848443, 1.6015588320682692, 1.0031512253436135, 154550000000
-0.36276971331659813, 1.5819080137459816, 1.0018713388326426, 154555000000
-0.16276898520546398, 1.5383123252539537, 1.0031931346015313, 154560000000
0.5757119453057008, 1.4814136769619466, 1.0028223400391605, 154565000000
-6.244852106626516, 1.647496545147863, 1.0009379418119109, 154570000000
-0.005997902570435269, 1.5483245455378307, 1.0017434269077694, 154575000000
0.4283079821135846, 1.5316863894610013, 1.0016247618722716, 154580000000
-0.348001755168498, 1.5210840909464403, 1.0016611010988707, 154585000000
0.28887706328093576, 1.5254779932716367, 1.0036630981709378, 154590000000
-0.20154013645476918, 1.568678625275376, 1.0033607184139857, 154595000000
-5.243215495984828, 1.518809676826032, 1.0040690723806862, 154600000000
-1.2801660654203515, 1.544105014184476, 1.0054915711080152, 154605000000
-0.34167417927697313, 1.4660123293638345, 1.0057592458811746, 154610000000
0.14593431720401553, 1.491261654065953, 1.0074618016629655, 154615000000
0.04301515034740226, 1.5182954980060894, 1.0095978274754431, 154620000000
0.26157161794238976, 1.5617160323580646, 1.0093840932949365, 154625000000
-0.5041066722643778, 1.4850534467142884, 1.0111830026763304, 154630000000
-5.262413310990164, 1.4801961395412604, 1.0117005798468837, 154635000000
-1.0960854324044706, 1.595892925222674, 1.0123683651722788, 154640000000
-0.2747529100206248, 1.4060262509362749, 1.013304137091364, 154645000000
-0.026804943595506087, 1.4772888821864603, 1.0142053326380471, 154650000000
0.35323154196259154, 1.504764265823507, 1.0142834067836113, 154655000000
-0.29359128419560765, 1.4789099218945507, 1.013449853804861, 154660000000
-0.04386304802504252, 1.453286649938112, 1.0149829717018697, 154666000000
-8.056254601320191, 1.5008351793053705, 1.0139571987257334, 154671000000
-0.36186428303062507, 1.4811388241065548, 1.011728702979138, 154676000000
0.5131577876560272, 1.458257966934007, 1.0117352695099306, 154681000000
-0.10462299355563885, 1.4792227622835041, 1.0104633236590692, 154686000000
-0.3353709614557994, 1.4370899303018687, 1.0089614252335775, 154691000000
0.4601513056848134, 1.416027491157066, 1.0085057232701637, 154696000000
-0.07342575835027565, 1.358397739858899, 1.006836656714504, 154701000000
-11.624653232055609, 1.5528473597461088, 1.0049416009411256, 154706000000
0.0963690926448858, 1.384845561327956, 1.001554815293576, 154711000000
-0.012245320469556672, 1.3862294219523867, 0.9994837041075897, 154716000000
-0.029926850061928665, 1.3835703427535266, 0.9973258824756684, 154721000000
-0.0462687126790009, 1.4823754078146403, 0.9953774377240155, 154726000000
0.04755005684706146, 1.4202134180246124, 0.9941922611705118, 154731000000
-3.9912432066209638, 1.3318387173124202, 0.9924255716493247, 154736000000
-1.3578281804066994, 1.3867421425983946, 0.9901364248410207, 154741000000
0.165422089116504, 1.3651139016040843, 0.9886334529743712, 154746000000
0.07423454688395571, 1.2218096947720025, 0.9876846901821268, 154751000000
-0.09679004180012218, 1.4653162631381293, 0.9861829976010227, 154756000000
0.0980238805038123, 1.3048806579032985, 0.9856074253615849, 154761000000
-0.0015311050310721367, 1.2720843759046288, 0.9848136758013271, 154766000000
-8.557663106919891, 1.4900576110723271, 0.9844540249717222, 154771000000
-0.041598661408957405, 1.2478695346217408, 0.9834977521952613, 154776000000
0.05707807237820283, 1.205462266893809, 0.9829106730488922, 154781000000
0.051748760879052384, 1.4672914373072015, 0.98233796639254, 154786000000
-0.01997905395098655, 1.1351643495192243, 0.9816500673716426, 154791000000
-0.043213473418806596, 1.3379977259825844, 0.9819231728477346, 154796000000
-0.0662907717922896, 1.3318388190573542, 0.9817898565466541, 154801000000
-11.305085019747994, 1.3158908593843812, 0.9808303448739244, 154806000000
-0.08353824506660427, 1.1986802330950803, 0.9800712612311294, 154811000000
0.07223378817198663, 1.2017008765833934, 0.9794676570623612, 154816000000
0.04149075045169178, 1.3779433354294142, 0.9787226669572899, 154821000000
0.025667942527245784, 1.2361537972448988, 0.9786090121109668, 154826000000
-0.03215508618808054, 1.1928179255333808, 0.9789149533190825, 154831000000
0.01431748885044945, 1.4017016437460108, 0.9784682095664373, 154836000000
-5.8387383945220055, 1.1548191647965171, 0.9774346130213559, 154841000000
0.06698534432991973, 1.2304019905826633, 0.9776068181696463, 154846000000
0.028183483444525086, 1.1710443938704707, 0.9776389150884794, 154851000000
-0.02317948615098545, 1.2647955283769348, 0.9773962779258274, 154856000000
0.0472070261286896, 1.2263272699552328, 0.9780647520711583, 154861000000
0.0005953288951152189, 1.1669575601680167, 0.9782576529916235, 154866000000
-0.11024545961946497, 1.281319869461744, 0.9778419963339792, 154871000000
-6.90783623406499, 1.2282782899237736, 0.9775936143652024, 154876000000
0.16310531936478564, 1.0806374111994168, 0.9772251996231497, 154881000000
-0.03029413021585579, 1.3713195078594742, 0.9769824916259237, 154886000000
0.07062144172319615, 1.1355874700552844, 0.9771328312129816, 154891000000
0.02422956727194094, 1.1573708460211456, 0.9774567921434454, 154896000000
-0.053437672188247645, 1.1601148614153407, 0.977400421115377, 154901000000
-0.27506752087280334, 1.2611385787153706, 0.9777877801272632, 154906000000
-4.703664015386088, 1.215497782111129, 0.9707870746669723, 154911000000
-0.007324057386994131, 1.188586179608871, 0.9648112443937317, 154916000000
-0.0707121435310045, 1.0918996095020999, 0.9572567682679712, 154922000000
0.08557795499254031, 1.1832310163213884, 0.951537615108533, 154928000000
-0.005185787201055665, 1.1337743598385752, 0.9464347343842753, 154933000000
0.014586899096058658, 1.0555649417134478, 0.9431218828602129, 154938000000
-2.7746867864364337, 1.1143647960225134, 0.9219027181841869, 154943000000
-0.10733433345797375, 1.1086175799740707, 0.9072437119906903, 154948000000
-0.05489408677762954, 1.0949535944941409, 0.8896452958684892, 154953000000
0.0011163081685449574, 0.8915722300240084, 0.8724012662971633, 154958000000
-0.19055025311915594, 1.288418893123885, 0.8521694322292265, 154963000000
0.35954657747465274, 0.8682717048103448, 0.8407299220734472, 154968000000
0.16765122235311594, 0.9495854346845578, 0.8304208937694565, 154973000000
-3.22614970891459, 1.0069629687305466, 0.8009962343469792, 154978000000
-0.19288213730422765, 1.0131418980165658, 0.7742943942845478, 154983000000
0.05096361783640453, 0.8875671706172168, 0.7496234771791482, 154988000000
0.1586891450703134, 0.750927314252666, 0.7268138216679119, 154993000000
0.10422856491288658, 0.8174080682813968, 0.7146728397311883, 154998000000
0.034939137710489745, 0.8974490187892527, 0.6880467037479446, 155003000000
-2.757115325790903, 0.8733956930813027, 0.6677355032523786, 155008000000
-1.0765338609117188, 0.7940836260131371, 0.6360116081591544, 155013000000
-0.044474258533529716, 0.715282924974803, 0.6059154068920956, 155018000000
0.10019657765102112, 0.6735693806048291, 0.5736673219427758, 155023000000
0.1121516006248785, 0.6774895235223802, 0.5535649508107049, 155028000000
0.07896443084784222, 0.6849071416534932, 0.5302395800479602, 155033000000
0.07741615944916488, 0.6520113793295805, 0.5089705077531819, 155038000000
-3.0552630992921355, 0.6196520352318347, 0.4767950668318176, 155044000000
-0.20090080241746702, 0.6085450327766787, 0.4437927875166225, 155049000000
0.045405027601989084, 0.580073390605633, 0.4065706378137716, 155054000000
0.09070771013126254, 0.49312409231882537, 0.3948638644967862, 155059000000
0.1277009289518596, 0.3704849479540455, 0.3602396900438832, 155064000000
-0.11316541103133226, 0.8158272035958267, 0.33346154527910915, 155069000000
-1.0344297491519818, 0.35411844208138854, 0.313886051952095, 155074000000
0.29429932627619687, -0.18416415906824438, 0.29088943401310335, 155079000000
-1.2890908422349279, 1.014988900477498, 0.26580839507906917, 155084000000
-0.044193639003113364, 0.43036937657893104, 0.2537480838770878, 155089000000
1.086706859760394, 0.11461890322582635, 0.22591998405329905, 155094000000
-1.0688368699285293, 0.6770819722619845, 0.2105422251962187, 155099000000
1.0115188827278074, -0.11357620235051952, 0.19430670963726077, 155104000000
-0.04037572478411041, 0.525914169378776, 0.17291348738186169, 155109000000
-0.8912702016923473, 0.5634732797917945, 0.1582649177492918, 155114000000
1.029298831319987, -0.16177749726691643, 0.14800160921447766, 155119000000
-0.08942930186800674, 0.400541807186162, 0.12972272302640844, 155124000000
0.19383868218370925, 0.45934555832314805, 0.11558971464319065, 155129000000
-0.6171283790198867, 0.32601683390485353, 0.10667615009380621, 155134000000
0.7462026305663355, -0.06380957508463841, 0.09531673047397539, 155139000000
-0.16786067931402204, 0.24999695396244404, 0.08077634053752741, 155145000000
-0.024191285363010417, 0.6000795564899768, 0.07131289944818396, 155150000000
0.07612147856225807, 0.2322310623319421, 0.06376289506696807, 155155000000
0.11225052047699532, 0.03515562465513661, 0.05632858371830487, 155160000000
0.04500093814377121, 0.10559455690342186, 0.050347382408736284, 155165000000
0.09563151219959158, 0.1505049446152912, 0.045349001092956746, 155170000000
-0.012880091156510842, 0.08449271714698162, 0.04098796702971683, 155175000000
0.09235851776685366, 0.1355753003654949, 0.03553805829544494, 155180000000
0.0437393157055313, 0.14060358528533345, 0.029032626766173342, 155185000000
-0.08393530267495755, 0.23517485420280237, 0.022421944109044637, 155190000000
-0.014748487403353732, 0.15088529061493272, 0.019568598292837542, 155195000000
0.09063622644588645, 0.12875187470311183, 0.015157663437022116, 155200000000
-0.11830631644554036, 0.18106262921142824, 0.011359601987349609, 155205000000
0.01718526211983234, 0.11545137220020565, 0.008568402188245073, 155210000000
0.048423161796439455, 0.11282926922493246, 0.006134088500933042, 155216000000
-0.11858423140263138, 0.18500046079203916, 0.0039835790615564285, 155221000000
0.06386911206136406, 0.08970375484998022, 0.002363382526362014, 155226000000
0.022472308811039503, 0.10815070831296361, 0.0010430363215144297, 155231000000
-0.12495662632887576, 0.15946933464833618, 0.0001624650761287417, 155236000000
0.10370633139279496, 0.05332419587762791, -0.00011436058829559931, 155241000000
-0.1002111427790502, 0.15989054169785502, -0.0007449466892546804, 155246000000
0.004870749753382825, 0.11725453307313717, -0.001610096388724444, 155251000000
0.09281042627703293, 0.05628646759653203, -0.0012200232250497787, 155256000000
-0.12991846439218832, 0.16872344428773162, -0.0016814444706108997, 155261000000
-0.009088121133655244, 0.14464726100262829, -0.0020761516982122632, 155266000000
0.13516699298448465, 0.016133616005322177, -0.0014584511999232639, 155271000000
-0.07925827956382098, 0.13740998746295435, -0.0017567483976398048, 155276000000
0.018043200490279417, 0.1052828156104763, -0.0018716619548520834, 155281000000
0.09122804110480653, 0.05559621221599527, -0.0017612775480926135, 155286000000
-0.11495207625283538, 0.12500032725991317, -0.0016515132446685186, 155291000000
0.00528113240136906, 0.15851488308222317, -0.0016305330018774435, 155296000000
-0.031795397609630974, 0.07419324627504696, -0.0017906277984073374, 155301000000
-0.013487716207708741, 0.09154743326462156, -0.0016164724433449511, 155306000000
0.021486375817103394, 0.09243497246180696, -0.0016297830871929387, 155311000000
0.014657884671086708, 0.09852607305971556, -0.0012292124423995137, 155316000000
-0.015569866457764658, 0.0938781130337418, -0.0007474961247302238, 155321000000
-0.034298402202055184, 0.0841359285442232, -0.0003678262389841504, 155326000000
-0.004105374757727903, 0.09241253977894659, -0.00020238492829509976, 155331000000
0.02613222602285188, 0.11162300975619405, 0.00010133829146328521, 155336000000
-0.004957657043051424, 0.11513745734342858, 0.00034945882617755354, 155344000000
-0.014880332977905968, 0.1173568497120629, 0.0007614743341535707, 155349000000
-0.00861513809195541, 0.08113753997474535, 0.0007151297626992159, 155355000000
-0.0389366117120204, 0.11168273081014296, 0.0008328622683806137, 155360000000
-0.009838712801278059, 0.11083609960186591, 0.0001936718865595066, 155365000000
-0.00846238780129757, 0.09558344895927118, 0.0006825678251020542, 155370000000
-0.005307272636251612, 0.09723220886930803, 0.0003138509322099643, 155375000000
-0.00574375649945148, 0.09331745038285422, -0.0003487356077405807, 155380000000
-0.007081496587222912, 0.062507410380724, -0.000278540719735163, 155385000000
0.004715855674989113, 0.08381671799651697, -0.0006968176183575299, 155390000000
-0.02431859670810748, 0.08250398632509084, -0.0001650111956094137, 155395000000
0.019380465788130512, 0.0953454668094144, -0.0006018031123439995, 155400000000
-0.009786841962282865, 0.057197140229875085, -0.0007215608747240521, 155405000000
-0.02364589017580031, 0.0737070487645451, -0.0008311667660155658, 155410000000
-0.0080718197912445, 0.08844492416887288, -0.0006485845425182288, 155415000000
-0.019905171459405995, 0.09855494042633144, -0.0008365815575590432, 155420000000
0.013824439125915251, 0.1255769475794852, -0.0007541550873968005, 155425000000
0.005298820140960953, 0.08276485221560573, -0.0005806685664126233, 155430000000
-0.0016452174052339957, 0.08907336058293924, -0.00036023343966298707, 155435000000
-0.01695922589101753, 0.06403333416660838, -0.00031884392644830644, 155440000000
-0.013877517391711273, 0.07392883735800095, -0.0005058913103548249, 155446000000
-0.02077546442028645, 0.1200807952645552, 7.447247508338565e-05, 155452000000
-0.0036908141854410112, 0.10971048049992096, -6.631041748871463e-05, 155457000000
-0.027513846154919863, 0.0840687938596703, 6.145550086399611e-05, 155463000000
0.010286163756102364, 0.10279287710309665, 0.00023987858546874115, 155468000000
-0.0006772058083689223, 0.06736662752144958, -0.0001863024381165142, 155473000000
-0.020185554459838953, 0.02879292127916812, -6.503521287946483e-05, 155478000000
-0.02135330885897352, 0.05251726744994136, 0.0002731291657147611, 155483000000
-0.02677177768137827, 0.06865360900470074, 0.0003730124033844432, 155488000000
-0.009609032737761161, 0.09086681459087664, 0.00010887781356122174, 155493000000
-0.018741012014072883, 0.027900791600342, -0.00032568846060846714, 155498000000
0.001431810672284783, 0.052910367328401355, -6.863711587056621e-05, 155503000000
-0.04002844219449195, 0.04974706703482205, -1.686495623776152e-05, 155508000000
-0.008368778974259737, 0.06416142283107554, -0.00026412074906955623, 155513000000
-0.021577065729254566, 0.0411970013422359, -0.0003372058016546254, 155518000000
-0.039051497089847516, 0.045333960650179736, -0.00020160579270012198, 155523000000
0.015497634344617699, 0.05393993649727852, -0.0003201536401921381, 155528000000
-0.015130103629806125, 0.053477820578924265, -0.00031618006712201617, 155533000000
0.008105467561809293, 0.05707395539482634, -0.000420869078818094, 155538000000
-0.011620515939004532, 0.05145238977382702, -0.0003136676791489771, 155543000000
-0.039139654537589934, 0.06722017885705174, -0.00028115385035851046, 155548000000
-0.020904501788620376, 0.03270265765837978, -0.0003750332175536103, 155553000000
-0.011821990042341753, 0.06901643834174366, -0.0001763476750395405, 155558000000
-0.012114934962181224, 0.05419763453559247, -0.00020256481647501135, 155563000000
-0.007301099489690927, 0.038918138978588375, -0.00040188054356719697, 155568000000
-0.04086410623038349, 0.04222957692889277, -0.00026450874676076693, 155574000000
0.008843003753989491, 0.06939413363788831, -9.729964286730441e-05, 155579000000
0.0052956188936561024, 0.0025533491536341643, -0.00010451397315327001, 155584000000
-0.012369646044866386, 0.028920152646312647, -0.0001108547888442755, 155589000000
0.01419754853401684, 0.0465744397543657, 7.141278073461263e-05, 155594000000
-0.0021222753445048134, 0.03443628283296959, 0.00022949751525725158, 155599000000
-0.01723681382428803, 0.04764258371573551, -1.642577393702708e-05, 155604000000
-0.03045964675709767, 0.04158706835261144, -8.666674923244631e-05, 155609000000
0.007337082468815504, 0.008729493315740643, -0.00023372995378324475, 155614000000
-0.003946349294937465, 0.029430658546112404, -0.00010676039283208957, 155619000000
-0.02659086021046849, -0.008632247525990351, 0.0005124302083123975, 155624000000
-0.011675408928114365, -0.007792755657988742, -0.00016347143532078194, 155629000000
-0.025879040452331102, 0.00826148740542999, -0.0002745113962464688, 155634000000
0.002704436009699475, 0.028522696644726495, -0.00022061682528779004, 155639000000
-0.0345667598358085, 0.009718700595095279, -0.0002908608487011432, 155646000000
-0.007250024819412206, 0.047846185184110254, -0.0004562644255805087, 155651000000
-0.018522608975721017, 0.02450043056858778, -0.00019603642824145623, 155656000000
-0.017387399891697675, -0.0077531844018515275, -2.9498145356622932e-05, 155661000000
-0.003854170816969274, 0.03593639949161426, -0.00032418924786199504, 155666000000
-0.02878373167368218, 0.031119319104342284, -0.00034102318771555917, 155671000000
-0.029775692411128495, 0.023117784856136803, -0.0003076104599579674, 155676000000
-0.03189173040827588, 0.01564981806763883, -0.00032157922698380437, 155681000000
-0.010314238850901663, 0.02613249908156038, -0.00018596738085813273, 155687000000
-0.025829313413082373, 0.01631595372668751, -0.0004547917161422053, 155692000000
-0.028072668468007274, 0.028592711465726714, -0.0001495095221785609, 155697000000
-0.031163257573496625, 0.005327191064670892, -5.111854084769059e-05, 155702000000
-0.03246832218664927, 0.01584376358032227, -0.0003724455966664788, 155707000000
-0.002437742885761863, -0.010189139666762534, -0.00013621317803248686, 155712000000
-0.015381360314767913, 0.025458274105801912, -2.1786590478821367e-06, 155719000000
-0.02718614948537018, 0.001842611930747788, -0.0004144538737459086, 155724000000
-0.023884901133995835, 0.004393265652956498, -0.00016370473658732125, 155729000000
-0.015441754615518943, -0.018934541049476422, -0.0001594564748819071, 155734000000
-0.02712177734167386, -0.031650516227867034, 0.00021626477839225772, 155739000000
-0.05191092707318931, 0.016429795374943802, -0.0003424731361258667, 155745000000
-0.038761100132367776, 0.007988790724853388, 0.00013830886955208582, 155750000000
-0.03750859403556703, 0.015763721031785336, -0.00013433704834687322, 155758000000
-0.010627183948340406, -0.002753672030135223, 3.580597572227628e-05, 155763000000
-0.019059191173896387, -0.0040018269646186115, -0.0005769179234743919, 155768000000
-0.03857779673146769, -0.00347666452164261, -0.00021404507387024404, 155773000000
-0.028245892955936602, -0.022505175502991304, -0.00046198090573325377, 155780000000
-0.04396230833832392, -0.013173704234688756, -0.00033512965744287497, 155785000000
-0.03936155475134989, -0.022353387856751852, -8.030088344344047e-05, 155790000000
-0.004166981941113573, -0.008314891832182144, -0.0005979530504035861, 155795000000
-0.03443302737470324, -0.019575174368792615, -0.0004077454527804548, 155800000000
-0.018829361100710047, 0.0015603402310462536, -0.00014351910829316276, 155805000000
-0.03344859688049899, -0.018739083692436452, 8.540884168504523e-05, 155810000000
-0.013687043882891187, -0.016831830600620084, -0.0003086528013222269, 155817000000
-0.008103865898430977, -0.010530427406751723, -0.00012562937680808778, 155822000000
-0.008250500905694052, -0.044125431924166, -3.031033488890567e-05, 155827000000
-0.031089863542114776, -0.011471430929700386, 1.4298026697521192e-06, 155832000000
-0.03871796129281978, -0.024269990824193868, 5.305244372442715e-05, 155837000000
-0.037437196247999946, -0.02804921024650553, -9.721390081636392e-05, 155842000000
-0.03198012264060647, -0.02540575317017122, -1.4559122028080058e-05, 155847000000
-0.021746509468678468, -0.012573165454510322, -2.1234328885066147e-05, 155852000000
-0.05616895221860259, -0.00143812076061188, -4.0973639868351123e-05, 155857000000
-0.005110705609596238, -0.016742582381762752, -0.00012105934098787363, 155862000000
-0.039028848328625375, -0.008063693889107285, -0.00025397024180539473, 155867000000
-0.04017253061657032, 0.0011365352943777246, -0.00015105519058176666, 155872000000
-0.0016558981229270603, -0.0293462360750482, -6.201089107936997e-05, 155877000000
-0.04612141424957215, -0.02831688137869654, 0.00016558054475351218, 155882000000
-0.0013154137746844985, -0.048204129134539975, -0.0005940281208722774, 155887000000
-0.041598011881752064, -0.01669991370545363, -0.00025624813710862045, 155893000000
-0.058904083564147086, -0.021447256510446617, -0.000157726405382714, 155898000000
-0.04789393747629384, -0.002220714235480356, -0.00028811913659409854, 155903000000
-0.05109727574995182, -0.024600073702387235, -6.470242563050974e-05, 155908000000
-0.0663809293499717, -0.018295694899821552, -0.00030119791833274493, 155913000000
-0.01898082898224313, -0.054102147693794546, -0.00016363692305459973, 155918000000
-0.05175268235905507, -0.013996434216862669, -0.00015627432867155295, 155923000000
-0.07939522348905198, -0.03191597238096982, -0.00021655989911895863, 155928000000
-0.05718124032195704, -0.03531532199603434, -0.00036853769975737645, 155933000000
-0.03317169179368684, -0.039003586717975214, -0.00012273528530600152, 155938000000
-0.04144334593995263, -0.020384858041581945, -0.0002635234691842375, 155943000000
-0.05909370294474222, -0.06894612720271956, -0.00021224221861667106, 155948000000
-0.044468390697304634, -0.040914679455749815, -0.00041946768932854756, 155953000000
-0.08006522762699234, -0.052364227718600664, -0.0002015197445612706, 155958000000
-0.04496415892713332, -0.06314673302408089, -5.390184962888618e-05, 155963000000
-0.06013326660856132, -0.04637740077035912, -0.00020016001722180027, 155968000000
-0.04506389910793045, -0.032812794219677345, -0.0004516280810190858, 155973000000
-0.08844238498294031, -0.044603556238207616, -0.0001713817602685884, 155978000000
-0.037211470708513335, -0.06009510822400743, 3.632317686873027e-05, 155984000000
-0.045568477181554067, -0.045011728453340984, 8.390461598515968e-06, 155989000000
-0.0435220368861403, -0.02180427205151239, -0.00015504585804757844, 155994000000
0.021871847000403837, -0.08058954173228369, 1.4838271263967326e-05, 155999000000
-0.1344698041355987, 0.017484886961722332, -0.0002497188662175557, 156004000000
-0.06840325685834832, -0.04157383478477135, -0.00028799587486830577, 156009000000
0.03549861990023102, -0.06232497562108698, 3.030873832580549e-05, 156014000000
-0.1697646510176002, 0.007039384334847796, 0.00019721462948515394, 156019000000
0.04638208402662858, -0.06705852908922484, 0.00019984181134958693, 156024000000
-0.056727623734204174, -0.059379518525014746, 0.00026329841781786963, 156029000000
-0.13632389037851494, -0.025328356166510628, 0.00031078897914423167, 156034000000
0.029797943280061773, -0.06297072185375985, 0.0006853181408079438, 156039000000
-0.08703489494069017, -0.046485296448251494, 0.0005833319540512961, 156044000000
-0.16018520984839033, 0.016713968535048675, 0.0006705248349218174, 156049000000
0.022726118522020132, -0.10656774651199838, 0.0005203979318985506, 156054000000
-0.06750670918533781, -0.047833257052977064, 0.00026119047504180137, 156060000000
-0.0711396370802946, -0.05113810055242727, 0.0003161526839072854, 156065000000
-0.060746827226079554, -0.03526572901772663, 0.0002684402283010768, 156070000000
-0.0757358321299299, -0.07996609118478304, 0.0002712531591815548, 156075000000
-0.05721739441809239, -0.05414289572437909, -4.3707126048807175e-05, 156080000000
-0.06218376888117598, -0.047794413473025196, 0.0001604565967150459, 156085000000
-0.06720564069877333, -0.06164008705326477, 1.8105193605227258e-06, 156090000000
-0.10514646128866122, -0.07252276878379388, -0.0002974440612366678, 156097000000
-0.055633103724741985, -0.036558351980489706, -0.00018485620011997973, 156102000000
-0.07053096110668924, -0.058526645186847304, -0.00027180662400055384, 156107000000
-0.04313376011382232, -0.046085061765056425, -0.00040843117820386866, 156112000000
-0.06405735483118939, -0.04990026915021889, -0.00041255332404090356, 156117000000
-0.06223665907213566, -0.03682879161551156, -0.0004790607956652455, 156122000000
-0.05406680020569252, -0.04779580198222373, -5.967185353797068e-05, 156127000000
-0.10280780766742592, -0.0755607091271188, -0.00028573913657188013, 156132000000
-0.08238082032793256, -0.07196904793798564, 0.00020166407388501115, 156137000000
-0.08177495179848464, -0.07102614113262971, 0.0001657311862951675, 156142000000
-0.10164493211681581, -0.061933515646120096, -0.00028716823878298863, 156147000000
-0.08197621720309377, -0.04798132523752022, -8.757614179094173e-05, 156152000000
-0.08064399273567799, -0.04985698460254094, 3.1620670263175175e-05, 156158000000
-0.0569209632556405, -0.06988593249966875, 0.0001681429006645288, 156163000000
-0.05363249594693231, -0.09994136969249669, 0.00018348640236493075, 156168000000
-0.08684133045255915, -0.05151792378481946, 0.0002893649791657441, 156173000000
-0.05133555269753344, -0.04493117008170495, 3.452470242194184e-05, 156178000000
-0.08610745103361915, -0.05932316415089246, -0.0002546433248365798, 156183000000
-0.05577847581417575, -0.08282120950789296, -0.00015685952802569183, 156189000000
-0.07000882107591175, -0.05794177854170599, -0.00011840815349912115, 156195000000
-0.08756547208707403, -0.03690424451762393, 5.6324569460112676e-05, 156200000000
-0.07638255672134654, -0.05313798875067394, -8.035945902846738e-05, 156205000000
-0.0848709989308241, -0.04337483269614339, -0.00017766269539588086, 156210000000
-0.10094800281516912, -0.02684560855246913, 0.0003097018984417139, 156215000000
-0.05765500829588521, -0.09130531504031444, -8.987701670031537e-05, 156220000000
-0.08218272830250324, -0.0460942355141145, 4.223318131355366e-05, 156225000000
-0.07059005588986558, -0.07509934653347214, -0.00017401659144389135, 156230000000
-0.08741991289151965, -0.04393645395637691, -4.5131967526193886e-05, 156235000000
-0.0656456615449285, -0.04806130716294564, -0.00041113687535503156, 156241000000
-0.05301536361658597, -0.06567971033627633, -0.000134574158732816, 156246000000
-0.06110257524558814, -0.07799635356846743, -7.569692162892788e-05, 156252000000
-0.06896988904081695, -0.07401918025312873, 0.00030097148598470916, 156257000000
-0.07687047965866439, -0.008416570393785364, -0.00022502926629713199, 156262000000
-0.04681770734810291, -0.06515016897294422, -6.177675802071549e-05, 156268000000
-0.03317339838685031, -0.03830434190353779, -0.0006362989702353571, 156273000000
-0.11081944933664806, -0.06302727692042531, 0.0001118424258234225, 156278000000
-0.08704055958183407, -0.08467050611986546, -0.00014782687595004074, 156283000000
-0.07969235766717178, -0.06757885103682561, -0.00016432794344657024, 156288000000
-0.05985062814703265, -0.07172852658386009, 5.4252678535565376e-05, 156293000000
-0.06166255424098229, -0.07975531346315433, -0.000264226688343165, 156298000000
-0.051741446029220414, -0.05304577539223512, -0.0005568895052224297, 156303000000
-0.16324375354236204, -0.029397705571904523, -0.00023034815925210977, 156308000000
0.08191191183304403, -0.12116141324055067, -0.0005144220631356666, 156313000000
-0.06944193028653198, -0.07304937285833037, 0.0001532580472817532, 156318000000
-0.16527882470362723, -0.0006500300863836565, -0.00019682467269261153, 156323000000
0.030553685732694343, -0.08222425893876925, -0.0003408906963928586, 156329000000
-0.13591006496932231, -0.05650847822425289, -0.00032004868713120526, 156334000000
-0.03581758938873398, -0.0662455017444471, -0.0004804445608283973, 156339000000
-0.006709516879877654, -0.113014852338746, -0.0004478425354289879, 156345000000
-0.1803483219295129, -0.008095091298472773, -0.0004073287252837435, 156350000000
-0.05264460601484214, -0.0772412866785027, -0.00034810193900187053, 156355000000
0.03354791713849356, -0.1276109014690774, -0.0006868395128498521, 156360000000
-0.16507605093985073, -0.013733767273549783, -0.0007392722166216668, 156365000000
-0.04296747135927095, -0.07636880276317225, -0.0013326498146339562, 156370000000
-0.027084450264339255, -0.05598288344224135, -0.0018211055738561284, 156375000000
-0.0692607408746466, -0.058163329705874935, -0.001886026363663413, 156380000000
-0.059554706479919804, -0.08457959307052326, -0.0024036588795045624, 156385000000
-0.04786241411217166, -0.07630991786652096, -0.0025375791035228204, 156390000000
-0.01745138048359935, -0.06422274688849258, -0.0028316479494551725, 156395000000
-0.05962812155640581, -0.07454409023969166, -0.003571405767683344, 156400000000
-0.0754939890435529, -0.07540550031364461, -0.003588490391539559, 156406000000
-0.05213187025068099, -0.05403650018540904, -0.003883271690456463, 156411000000
-0.0456004242196885, -0.06494769959481125, -0.0027818545413820215, 156417000000
-0.004118210257306652, -0.08192864251961111, -0.002511218117621855, 156422000000
-0.014966339863411206, -0.038558945266787256, -0.0027337279394343533, 156427000000
-0.06733152599196876, -0.06968287489413649, -0.0012930549437732014, 156433000000
0.0033724946417382773, -0.08013943932048981, -0.00125788591748333, 156438000000
-0.062249897558467215, -0.0734895933313073, -0.00031472306538984896, 156443000000
-0.03137500790258388, -0.039905286191321596, 0.00034490224640769987, 156448000000
-0.06317255393780706, -0.050240761278049266, 0.0009093889186285119, 156453000000
-0.03458247250650156, -0.07011913895150096, 0.0014129990498006047, 156458000000
-0.02871599361625004, -0.05836880663778251, 0.0015934627508582817, 156463000000
-0.06807209673197102, -0.0423755904045503, 0.001766426604739569, 156468000000
-0.05639581291374474, -0.07076993462155584, 0.0016355685641222522, 156473000000
-0.00615749290424026, -0.04781298517945885, 0.0019211022779628086, 156478000000
-0.07447460783043289, -0.07103470810665516, 0.0010997334394587774, 156483000000
-0.03914034637289023, -0.0342225903706691, 0.0011364017146429494, 156488000000
-0.048050695064399615, -0.0668674891148978, 0.0008255496384620549, 156493000000
-0.04727339879891439, -0.05126729976896581, 0.0004610003641662483, 156498000000
-0.04822177017275131, -0.08884271325373058, -0.00012573660326967178, 156503000000
-0.036831490549241855, -0.059173995464681536, -0.0007781288799532863, 156508000000
-0.036194061741088135, -0.04410727002568847, -0.0007626334019136707, 156513000000
-0.027085735671464654, -0.07827325218777834, -0.0013759893770668313, 156518000000
-0.04431555651036814, -0.053097209710684316, -0.001121228335765312, 156523000000
-0.03910533447230127, -0.04253054748556889, -0.0013405196192820704, 156528000000
-0.02569319021518269, -0.031411808408338016, -0.0017249280990671095, 156533000000
-0.017475281898043128, -0.04767209331271089, -0.0012485597902978855, 156538000000
-0.026210781696679793, -0.06325729543174871, -0.00046681303348946896, 156543000000
-0.041007928605419915, -0.08620560423602555, -0.0008973118201544744, 156548000000
-0.03588019059959455, -0.04063082895541966, -0.0007778372020998972, 156553000000
0.020538202397799854, -0.05651313105016298, -0.00037829755167376216, 156558000000
-0.0646453511617007, -0.07662065242469591, -0.00020312414066391406, 156563000000
-0.02950536612520374, -0.07471644740591284, 0.0002106394195124032, 156568000000
-0.043187258405259665, -0.03724077573302991, -4.814490220993875e-05, 156573000000
-0.03894282958633799, -0.03037128949665442, 0.00058187281676812, 156578000000
-0.027823241271924495, -0.031695733684857307, 0.0004287555603279188, 156583000000
-0.04097905402654817, -0.06124382977655905, 0.0007635743600996444, 156588000000
-0.051308487398840065, -0.05413975119931196, 0.00043985253708360856, 156593000000
-0.021115586036783984, -0.05198948410816052, 0.00041483119303435255, 156598000000
-0.033965931956790325, -0.04686826029265383, 0.000765205025648334, 156603000000
-0.024699359932191245, -0.04669098336405321, 0.00030014505926739463, 156608000000
-0.031288906411103455, -0.040814899860867344, 0.0001596364012868852, 156613000000
-0.04873493406291239, -0.022883010298921622, 4.52798098752673e-05, 156618000000
0.00018292065903387222, -0.03130684648946864, 0.0004122752178818837, 156623000000
-0.05170102630574142, -0.04039330381415308, -0.00037873949326305373, 156628000000
-0.02749439889890027, -0.02923415148672595, -0.0007165653298704488, 156633000000
-0.014448401073656813, -0.03788791476084182, -0.0008101993736382245, 156638000000
-0.034816060648133605, -0.041554865961860366, -0.0007096928983825453, 156643000000
-0.05602951189098701, -0.03045452637159982, -0.0005915154905136421, 156648000000
-0.06632256431042488, -0.07777443845619905, -0.0006658255096440295, 156653000000
-0.006737044642569762, -0.06071567760588335, -0.0005868060961691303, 156658000000
-0.03279575278495759, -0.060515997761662, -0.000815438421735714, 156663000000
-0.03187897836132357, -0.05919835601904253, -0.0007025157699230522, 156668000000
-0.012007558988926591, -0.04745255824306643, -0.00042422600385662844, 156673000000
-0.03926659013985327, -0.0188103186417989, -0.00016147109080749127, 156678000000
-0.05350944156910199, -0.0177851867153792, -0.0004377409273421535, 156683000000
-0.01611297854783642, -0.03460407447072662, -0.00010792390510893895, 156688000000
-0.0014331278429510763, -0.03738546254322499, 6.549491971165664e-05, 156693000000
-0.05057249308442899, -0.060476710987130596, -4.034055145995103e-05, 156698000000
-0.03256260213705703, 0.007194965357233234, -4.337630292316809e-05, 156703000000
-0.01462720354645404, -0.01759989230995122, 0.000252260716118247, 156708000000
-0.007370503117654845, -0.037318247694017516, -0.00012254383742604232, 156713000000
-0.04387213334887173, -0.03986461414777782, 8.638377430741376e-05, 156718000000
-0.044264282362692677, -0.02822131002206293, -2.276835680137173e-05, 156723000000
-0.02699111294384621, -0.018017182720079742, -0.0002585593091668931, 156728000000
-0.04294973107799768, -0.037252186589937696, 5.981058030152435e-05, 156733000000
-0.06205105559212479, -0.018653548782260564, -0.00026338627217202694, 156738000000
-0.02705823541404577, -0.03235082030571891, -7.299538336588331e-05, 156743000000
-0.06698394958771509, -0.049547709093450035, -0.00016893867150597446, 156748000000
-0.046005443234520674, -0.04562970546430692, -0.0004433015810849831, 156754000000
-0.024898921503147563, -0.062203970940074696, -0.00018863152462935214, 156759000000
-0.03490719875377956, -0.042206022880790714, -0.00021702369779441323, 156764000000
-0.032502776925135604, -0.02848041538924943, -0.0006090684874497643, 156770000000
-0.05593273539448415, -0.019899950859139186, -0.00039097400685435095, 156775000000
-0.043863330489740136, -0.05054306530155907, -7.437765632309579e-05, 156780000000
-0.05695463172221863, -0.028360285335468402, -0.0003407563338462982, 156785000000
-0.04734485668819169, -0.022166242961382424, 0.0003007413289041301, 156790000000
-0.011880584129002881, -0.024303407665999307, -0.0005158748130658885, 156795000000
-0.06147589031006158, -0.027034609531618237, 0.00010396033661685237, 156800000000
-0.03325734590980333, -0.01388349302699073, -0.00020792476784565298, 156805000000
-0.021478490597092278, -0.0315893790800979, -0.00045901743855826483, 156810000000
-0.03406047802896744, -0.017005537310437115, 0.0001810158401781514, 156815000000
-0.048846192123955155, -0.04129336514196738, -0.0001224976797679981, 156820000000
-0.02621711498990586, -0.020865648441358877, -8.53579013790699e-05, 156825000000
-0.04367606519004294, -0.02664448143560854, -9.337596203651038e-05, 156830000000
-0.025044886721125134, -0.005456326618046018, -1.619198426034952e-05, 156835000000
-0.033659946919540724, -0.019452207443554602, -9.53256560701775e-05, 156840000000
-0.043723937144670814, -0.01957442685694653, -0.00022552906334860883, 156845000000
-0.04030655620182047, -0.03979730700097195, -0.00031778459125433325, 156850000000
-0.03328923178128629, -0.042157380588132204, -0.00030128636583900997, 156855000000
0.007326329638100197, -0.02121876125729525, -1.950881551302731e-05, 156861000000
-0.06307979355686245, -0.024905242995246536, -0.0005560779462602406, 156866000000
-0.00642036382333009, -0.05503389700945471, -9.869056631622519e-05, 156871000000
-0.043771533427293695, -0.023526376607299213, -0.00018385117439048793, 156876000000
-0.05341416218479182, -0.048736201153217654, -0.0005029260065333858, 156881000000
-0.04791473513357825, -0.017974801180454185, -0.000397673968487035, 156886000000
-0.05090428677176491, -0.027910136115246485, 5.178008368168408e-05, 156891000000
-0.028509959597557064, -0.03277396455491702, -0.0005513493396946114, 156896000000
-0.027166174629736167, 0.012386198797476947, -0.00029797941291376793, 156901000000
-0.04328908652507171, -0.02075056324390688, 7.097357531888365e-05, 156907000000
-0.031137291923096246, -0.019053622609975313, -0.00011312047847560773, 156912000000
-0.03678814469183788, -0.02156453293448858, -6.461732937978692e-05, 156917000000
-0.023562980382719215, -0.07096696110283693, 7.217467929861762e-05, 156923000000
-0.02147297787072825, -0.03291357519227668, 0.00024050463019889478, 156929000000
-0.041150668160135996, -0.019083413516566616, -0.00011883023479085177, 156936000000
-0.060819568391175444, -0.03811345025930708, 3.545059476268116e-05, 156941000000
-0.018820830189278756, -0.0355388919866895, 5.754376076664276e-05, 156946000000
-0.013828243314376865, -0.04351050858367971, -7.770255000509561e-05, 156952000000
-0.029490705874499555, -0.04896135492579098, -0.0001192335688820529, 156957000000
-0.04824437712029547, 0.011494667281750238, -3.608337510341903e-05, 156962000000
-0.06260611030898072, -0.027850528234486385, -0.0001774661510761743, 156968000000
-0.032368102268273136, 0.0021003735795005925, -0.0005991345623639732, 156973000000
-0.029878184563829825, -0.0038018563155329393, -0.0002428757147924745, 156978000000
-0.02798580520584347, -0.03188688183702407, -0.00034163147432201657, 156983000000
-0.020471056100686696, -0.022697335936519052, 9.658397392511104e-06, 156988000000
-0.014532776375432013, 0.01440964102822367, -4.7556341366313665e-06, 156993000000
-0.047557651893182826, -0.0237687168349553, -0.00043167952914546456, 156998000000
-0.03635421108358573, -0.020512878336478184, 5.919472730162297e-05, 157003000000
-0.027607549035532003, 0.022224361953111945, -0.00019075774430153694, 157008000000
-0.021154444890247655, 0.019640171003159825, -0.0006462619255947596, 157014000000
-0.04614473261903608, -0.02250024367358632, -0.00016626412384272406, 157019000000
-0.08122479409845151, 0.006647802846935207, 0.00018222050867274683, 157024000000
-0.048982547708851715, -0.03824490327092911, -0.00021193396568696754, 157029000000
-0.03266114526449569, -0.008949587599796884, 5.0132931869912846e-05, 157034000000
-0.053020440118570614, -0.020020074155092632, 0.0001926874422372103, 157039000000
-0.045505127205179095, 0.011755474147300327, -1.683159891827625e-05, 157044000000
-0.061956907294147115, -0.04806003801114052, -0.0001998761135207633, 157049000000
-0.020109771898335925, -0.012374207500843799, -0.00024952967466241243, 157055000000
-0.05775368880706112, -0.013092402490323906, -0.00031793970772136225, 157060000000
-0.060022609264825354, -0.018227411984904986, -0.0003733733446602984, 157065000000
-0.023295737146625434, -0.047722015921768696, 0.00012219346924494315, 157070000000
-0.05361992384437895, -0.026336573669102928, 0.00013260471742147992, 157075000000
-0.03140118024564886, -0.0061100376980713685, -0.00027631601820039744, 157080000000
-0.06344596032428725, -0.020926507249939556, -0.00014277179968118632, 157085000000
-0.0323943106156926, -2.1299943587385975e-05, -5.8789756623848247e-05, 157090000000
-0.03725028143316993, -0.040132934146159066, -0.00036649524450389683, 157096000000
-0.020640153290574583, 0.012569791530089462, 1.6635075200699433e-06, 157101000000
-0.04675711483893744, -0.0004827690729049365, -0.00023312664292660118, 157111000000
-0.033417703479928104, -0.007378866103623487, -0.0003837815469204456, 157116000000
-0.056898132561368865, -0.03927961376340684, -7.229854803839707e-05, 157121000000
-0.059211813953406925, 0.008357850922070703, -0.00028294230712661776, 157126000000
-0.0695664874560114, 0.002813316754263032, -0.0001755016655283298, 157131000000
-0.055081095380406904, 0.02358688562662476, -0.0003185075459011574, 157136000000
-0.08184688404780534, 0.006259037526202177, 4.5453437408477345e-06, 157141000000
-0.08240273353506863, -0.01326234059639218, 0.00021231168653324634, 157146000000
0.027054955182210412, -0.023248914844155807, 0.0004043528441583301, 157152000000
-0.16849733640218909, 0.06119766110909515, 0.0003146038725894916, 157157000000
-0.05596723413482689, 0.014403088707558642, -4.1991095329084726e-05, 157162000000
0.022234466188369034, -0.058460092694769865, 0.00034934828356698015, 157167000000
-0.2230354855683789, 0.05569836406791429, 0.0005732862373198927, 157172000000
0.049395057184890595, -0.07131706420004488, 0.00020662767342474224, 157177000000
-0.06021556142891764, -0.028330314396435276, 0.00034811303635938387, 157182000000
-0.0557966874440707, -0.0386267248634125, 0.0005898531412741517, 157188000000
-0.04273439580615333, -0.020291783287843732, 0.0003326868321093381, 157193000000
-0.18665585112388133, 0.023776284327981553, 0.0005180559244391324, 157199000000
0.05668705827320679, -0.051906274971453496, 0.00025328353825463615, 157204000000
-0.07628144717764605, -0.04243168258383451, -3.389798620875617e-05, 157209000000
-0.19242497656128268, 0.045777793785989396, 0.00023505326615699053, 157214000000
0.07299999139037713, -0.05898839402629362, 9.210874270113018e-05, 157219000000
-0.04512958811948867, -0.05016448668498567, 9.86292108866237e-05, 157224000000
-0.06028625248954109, -0.013330338864110967, -0.00014556154994324337, 157229000000
-0.16810645537959612, 0.036410748492576424, -0.00014774495726244062, 157234000000
0.06203436348141762, -0.08855668081913594, -0.00039043052929156266, 157239000000
-0.04619085384854897, 0.011549721421760549, -0.00012051493483850903, 157244000000
-0.0656597896927025, -0.010355813823413298, -4.882994792655476e-05, 157249000000
-0.07045168967812064, -0.028912409047370906, 4.012058418645127e-05, 157255000000
-0.06411285062574487, -0.0012383952772147457, 2.3936610294320772e-05, 157260000000
-0.08504715685971495, -0.0025335735883531664, 0.00019798054594555845, 157266000000
-0.0762006637050585, -0.00794820834662932, 0.0006773578922227385, 157271000000
-0.05888356490357604, -0.013516915476694005, 0.00030005988566641145, 157276000000
-0.030935744405514436, -0.005839471227110523, -0.00010212550499882574, 157281000000
-0.04820831729305098, 0.02122234249096782, 0.0002126921688443298, 157286000000
-0.08470619764909658, 0.000729185168695151, -3.829859147770566e-06, 157291000000
-0.061671074182697155, 0.025033279418613514, 0.0004956302010519509, 157296000000
-0.08320091886129942, 0.0012226616101121924, 2.086316079732815e-06, 157301000000
-0.07755572756802351, -0.020457913308095873, 0.0002649676982747569, 157306000000
-0.05521215989950927, -0.008852117451626024, 0.00015814297846987715, 157311000000
-0.14317372178395554, 0.04922028741047847, -0.0003057545564042434, 157316000000
-0.0036207091268079996, -0.038833374031554194, -0.00015793154299321895, 157322000000
-0.03995167142454244, -0.005482425730567253, 0.00024432910729797134, 157327000000
-0.062307691130989204, 0.020438888221707703, -0.00021635109031931598, 157332000000
-0.05396103041318996, -0.013217526613345847, -0.0002650407582264312, 157337000000
-0.10526575036279626, 0.011920217988869147, -0.00042750026890071396, 157342000000
-0.03444688581432415, -0.0058867595298805015, -0.0002444151191544463, 157347000000
-0.08964824181138384, 0.02294640053722523, -0.0003596293798469686, 157353000000
-0.16297474969492606, 0.00864424247060211, -0.00037330385889946225, 157358000000
0.11630095927611298, -0.10367552103169195, 3.531035606515711e-05, 157363000000
-0.08605655080555467, -0.002151901495895949, 7.617233635367332e-05, 157368000000
-0.16067490867690623, 0.0627551314335763, 4.982455792315664e-05, 157373000000
0.06414408099021325, -0.08146651197511691, -8.042714516037957e-05, 157378000000
-0.05901935586806294, 0.030168547157049135, -0.0001449231030401124, 157383000000
-0.16091749856809098, 0.020240029901976875, -0.0003967539634751469, 157389000000
0.03729129388143183, -0.020597657748189013, -0.0005139186085272194, 157394000000
-0.19134603941698378, 0.06090131652816686, -0.0006727708300825466, 157399000000
0.05333237317047561, -0.04110359128620965, -9.759812790154746e-05, 157407000000
-0.1546304113824061, 0.020584089065489076, -0.0001976995115322914, 157414000000
0.0050576552303087195, -0.04932208224781768, -0.00010194461806321432, 157421000000
-0.16078099168947715, 0.049530097819117345, -0.00021527940129860591, 157426000000
0.018021959588471245, -0.03100114180907523, -0.00040807938019237405, 157432000000
-0.13948232225032503, 0.03525855587242863, -0.00010153033309554614, 157437000000
-0.050277019125238215, 0.0006668196687091821, -0.0002913872124046987, 157442000000
-0.05341749126924556, -0.029152652135526647, -0.00045173812145394426, 157447000000
0.04396820556304683, -0.026321292668340764, -0.00043331856329955145, 157452000000
-0.23222223106001205, 0.05328008616684422, -0.0005770021917835568, 157458000000
-0.06420970975900642, 0.013177867785450059, -0.0004446325547239002, 157463000000
-0.04712120567925155, 0.0009919898905068414, -0.0006073639447536471, 157468000000
-0.04498106351107491, -0.006550699312105493, -0.000342951142166619, 157473000000
-0.045777252331084976, -0.02107201405838222, -0.0007898227422689153, 157478000000
-0.053003132901886296, -0.022905173065806014, -0.00033536510971940957, 157484000000
-0.05938848297950186, -0.00894568835552662, -0.0007716231498199927, 157489000000
-0.08179936880669916, 0.0054688742428128205, -0.00010141310676960833, 157494000000
-0.03675465560831431, -0.044537907198823085, 0.00024974696339888743, 157499000000
-0.042814252537909485, 0.006925211964221539, -0.00011055391515657293, 157504000000
-0.061598787662140816, 0.0031296957841285685, -0.00021925915672886537, 157509000000
-0.07391645949931964, 0.020387780991293826, 2.6114408585541988e-05, 157514000000
-0.039936840278575504, -0.02397637223718091, -0.00010080615727275485, 157519000000
-0.051640536175205684, -0.014109174008350121, 9.685158437980552e-05, 157525000000
-0.0507190709837544, -0.048098309954166224, 0.00021579236325709798, 157530000000
-0.03731332087318294, 0.0184386229510161, -0.00017053079691369127, 157535000000
-0.04660184212694547, -0.013478545490842934, -2.087157805071177e-05, 157540000000
-0.04342395514349624, -0.011190077420387932, -0.00010285868539555326, 157545000000
-0.05156008783944327, -0.009268023070003469, 0.00017558154628587576, 157550000000
-0.055840670298521786, 0.013776633723300173, -0.00010789807584108056, 157557000000
-0.04969139938660974, 0.011092272414237983, -0.000286708199994315, 157566000000
-0.04955320601774594, -0.02856582477024699, -0.00037206294814645094, 157571000000
-0.04259281411612982, 0.0244640951146693, -0.00013031151890304204, 157576000000
-0.03776383702131706, -0.017234741875196666, -0.0002359423750209571, 157581000000
-0.05544315468382189, -0.020737385738251648, -0.0001158328505662393, 157586000000
-0.03386423284932797, -0.002095584672429426, -0.0002538205793945894, 157593000000
-0.03673887584608265, 0.010320573904850416, -0.00025231058204540726, 157598000000
-0.037916401409968575, -0.01419745861607245, -0.00022098358176239911, 157603000000
-0.05111955570813504, -0.011571164423381868, -0.00025371284451025216, 157608000000
-0.05442998521197004, -0.0022927799406072744, -5.1188957143466344e-05, 157613000000
-0.06245395720201154, 0.0027130772327874455, -0.00032171940070124203, 157618000000
-0.059325913591257426, -0.003675320185637521, -0.0004878278806768638, 157623000000
-0.03246035826656941, -0.0023706874598734564, -0.00011713786275824947, 157629000000
-0.07046757965577197, -0.018627057990348417, -0.00016016534880025773, 157635000000
-0.04004468129307738, -0.012051906086404851, -0.0002661762219912645, 157640000000
-0.08006616086094358, 0.0031944042076478257, -5.752875850961834e-06, 157645000000
-0.02639266850147411, -0.0029095615024912003, -0.0001636712642492818, 157650000000
-0.026040556855654595, 0.01824680092970517, 5.156478938735603e-05, 157656000000
-0.08137714971916876, 0.004170760489497724, -0.00012696601336661075, 157661000000
-0.02915499113568612, 0.01088055740841309, -0.0005205232310875298, 157667000000
-0.0470646276143399, 0.0022556790901029572, 6.45984333469561e-05, 157672000000
-0.03458366227360744, -0.009019992341412764, 8.841281472753208e-05, 157677000000
-0.03253605057538758, -0.005634877097750775, -0.00017455183159313344, 157682000000
-0.054952452236426516, 0.02600384189762593, 5.400242981842601e-05, 157687000000
-0.040958877331540106, -0.022225199151691813, 6.732928784114714e-05, 157692000000
-0.04765126272044241, -0.010605491949008833, -0.0007416107613378174, 157697000000
-0.060498281692260215, 0.0021956354111812414, -7.7694057137477e-05, 157702000000
-0.034912329395713294, 0.007170277947703096, -0.0002679149458593096, 157707000000
-0.046115353055724805, 0.00656103411538007, -0.0003603467987194172, 157712000000
-0.03535718479592724, -0.004904446565228513, -0.00042786213954681507, 157717000000
-0.052774655600206485, -0.0195265450575547, -0.0004248423417282487, 157722000000
-0.07787005839228936, -0.016810528992828776, -0.00019760066006708463, 157727000000
-0.0681005021815262, 0.023742973443012856, -0.00032517327585869775, 157732000000
-0.02592359773804613, 0.010455118269673828, -0.00030746910963273507, 157737000000
-0.05658209184323332, 0.01645932976901292, -0.00032703258561331305, 157742000000
-0.04474215893829912, 0.026952496499926096, -0.00021428712851928068, 157747000000
-0.03820852320403677, -0.014874915404649665, -0.000260895634453504, 157752000000
-0.049669573381370596, -0.009641909723438516, -5.097199406477675e-05, 157757000000
-0.04332633035194039, 0.01550031364467491, 7.39242324826506e-05, 157762000000
-0.034084853325369154, -0.008582396385202164, -2.7298140828214604e-05, 157767000000
-0.05693579701825732, -0.018973592541082253, -0.0004171519455672825, 157772000000
-0.024717060576071346, -0.043592996579083346, -0.0002626645730276669, 157777000000
-0.02620984760321293, -0.023703712562776813, -0.00022101691882969767, 157782000000
-0.04565394952217668, 0.012686667647639281, -0.0002175098031980599, 157787000000
0.008669699138608593, -0.007642123188771995, -0.0003626135362157304, 157792000000
-0.046718455694443176, -0.0013417750141759438, -0.00011799498790742539, 157797000000
-0.023882910618467427, -0.01668991520828611, -0.0002373053790859384, 157802000000
-0.03492888128276957, 0.0035039665263906705, 2.1078166968892763e-05, 157807000000
-0.03852607250403306, -0.0017990557468470871, -0.0003913597957998691, 157812000000
-0.06563577460461308, 0.024956867575729305, -0.00013269511112264714, 157817000000
-0.035454702782137956, -0.004418586923105907, -0.0001752996361904371, 157822000000
-0.016405038529884387, 0.028788987014318496, -0.0001475094779753126, 157827000000
-0.056034005377629176, -0.03031277091415019, -0.0006718051630018923, 157832000000
-0.07249778499713563, 0.031951521990521224, -0.000349851596942439, 157838000000
-0.06687027314018595, 0.0360832890065353, -0.0004259299445660403, 157843000000
-0.04815313268677259, 0.004671967526238033, -0.0004382847463922627, 157848000000
-0.013015837327300862, -0.05146787280228989, -0.00016185092426898785, 157853000000
-0.043550654081402844, -0.03311384781639941, 6.93883497770729e-06, 157858000000
-0.06311688106448102, 0.010921215148647682, -0.00021152521510587038, 157864000000
-0.04908238523219276, -0.009018324601715937, -4.8936508862102134e-05, 157869000000
-0.062066803847611506, -0.0026588891889025284, -8.963975159408708e-05, 157874000000
-0.03449960336644965, 0.010788054546884182, 8.31432282285779e-06, 157880000000
-0.055249236737217704, 0.006737078899020831, -0.00032838517777411595, 157885000000
-0.03510358056977725, 0.0037479830865018863, 0.00015494699898792595, 157890000000
-0.032785558621547375, -0.0073356071158840064, -0.00024041394184191796, 157895000000
-0.05556976564739568, -0.03570593834181973, -0.00017629341848601112, 157900000000
-0.016913778406203398, 0.002933107956278556, 4.103739772954573e-05, 157905000000
-0.04497453617522466, 0.006549148866794566, -0.00014537412516753073, 157910000000
-0.05796781274628128, -0.024006883367401012, -0.0002451261081099862, 157915000000
-0.030949266034990697, 0.015469168504805907, 0.00018184990862714224, 157922000000
-0.06628148561079793, 0.017465343347773634, 3.988582979648966e-05, 157927000000
-0.055013096477701334, -0.021928111517398444, -8.102256789344203e-05, 157932000000
-0.062470922621834915, 0.00898489425975497, -8.939217835779028e-06, 157937000000
-0.0377068408373976, -0.022058451711795306, -0.0004531605745945254, 157942000000
-0.058514096253130934, -0.017592465870809256, 8.77707067119184e-05, 157947000000
-0.0694874526416802, 0.010908143033973847, 3.535400390215472e-05, 157952000000
-0.06565404554685637, -0.03972282961332817, -5.795096503510535e-05, 157957000000
-0.05572974492933616, -0.03131056692300154, -0.00017311039938799522, 157962000000
-0.047846960913919614, 0.012252357137054727, 3.257781627294439e-05, 157967000000
-0.04515607602955492, -0.010298369844295562, -3.1008901285598466e-05, 157972000000
-0.03446017971120094, -0.011720384385402478, -0.00038840296933505107, 157977000000
-0.03695542013929163, 0.023800911930605156, -0.0002559254523469083, 157982000000
-0.0867927390820111, -0.016991357234694394, -0.00016979083101989283, 157987000000
-0.05150816925961304, -0.017222925782689965, -7.966177667573797e-05, 157995000000
-0.05172572307193207, -0.003482446778957266, 0.00010943400848681032, 158000000000
-0.04059323642995412, -0.01759863064805359, 2.3608988038286788e-05, 158005000000
-0.058095364737472885, -0.04412126139618367, 0.00015709176009724975, 158010000000
-0.07242178565958597, 0.0019958792813785757, -0.0003463414005277348, 158015000000
-0.06602675891515193, 0.026513585553165957, 7.304577132431433e-05, 158020000000
-0.0522413601385822, -0.023440985908844632, -0.0001335078883450096, 158025000000
-0.06675911463720505, -0.004294639699364659, -7.707687842348134e-05, 158030000000
-0.05156514126224597, 0.013335222979099965, 0.0003344833342571905, 158035000000
-0.036369475574990796, -0.01997433161124299, 0.0002513011290570473, 158040000000
0.015318281918075445, -0.04005483960164811, 0.0002794542781231908, 158045000000
-0.1431233318937693, 0.060157659994070876, 0.00011264373251158242, 158050000000
-0.05634501692554064, 0.039973891361885686, 0.0001892583451953179, 158055000000
0.060651648824496716, -0.07586360216662347, -5.417334417661497e-07, 158060000000
-0.17286853294798724, 0.10618286701740345, 0.0001699768443537287, 158065000000
-0.04096639261673989, -0.008560255449355547, 0.00016548932878752114, 158070000000
0.0282725472161556, -0.07041592246185675, -5.5133739609732226e-05, 158075000000
-0.17626541637541085, 0.08376355904081667, 7.1084851850697e-05, 158080000000
0.05901450491883594, -0.11405089380573266, 0.00036981927665788905, 158085000000
-0.09123092315605186, 0.0040576572524247175, 0.00010306927878078218, 158090000000
-0.19706573426503687, 0.08901880903263745, -6.593957516935329e-05, 158095000000
0.07656802195281522, -0.11169730004678532, -0.00010234627379092563, 158100000000
-0.15851886429498124, 0.06696236659209676, -0.00010442840742604253, 158105000000
0.060394880411408156, -0.05790333113383087, 1.6831672082294225e-05, 158110000000
-0.07226103128225649, 0.008080572584096469, -3.681990435217278e-05, 158115000000
-0.1731018484736866, 0.10232139690483605, -0.0005560866726253598, 158120000000
0.08613017235569273, -0.1047886829448184, -0.00034994307383665, 158125000000
-0.07172488932354724, 0.01760948097346299, 0.0001704483271816885, 158130000000
-0.06761421568031505, -0.029410167053898005, 0.0001441409624978498, 158135000000
-0.025019229822971063, -0.006406031978814465, -2.9347454583978884e-05, 158140000000
-0.08177767973354819, -0.013698252490414346, -9.311998793925756e-05, 158145000000
-0.08860674981243477, 0.00214630269110207, -0.00018466605101646752, 158150000000
-0.07337883440755669, -0.03416501363934644, -0.00011914992178257812, 158155000000
-0.06512982475001547, -8.292820197716515e-05, 0.00016197559786871717, 158160000000
-0.2828341221989295, 0.14622943033365923, 0.00012925763251275986, 158165000000
0.035101877382317355, -0.07734430559568535, 3.2006198893273905e-05, 158170000000
-0.07491671078757833, 0.04502370653485608, 0.0001445121282854841, 158175000000
-0.19361872105874214, 0.08962493807037109, -0.00037335140316485134, 158180000000
0.047595002270498094, -0.13640201595605245, -0.00017577861405386464, 158185000000
-0.08315432546853016, 0.002834188439973542, -0.0001086927570513587, 158190000000
-0.04624423470987686, -0.003432766255169644, -8.276801728759948e-05, 158195000000
-0.1635508242913511, 0.0923107226612737, -0.0002797807521318496, 158200000000
0.010485559952221273, -0.1060236672795028, -0.00014657720320241575, 158205000000
-0.0740314618131171, -0.03094837062092646, 0.00027447886526813994, 158210000000
-0.17402909234027436, 0.14375496915311095, -0.00034562640231185974, 158215000000
0.07781604254517162, -0.1362055322989543, 0.00015504977290243854, 158220000000
-0.08627283160758296, -0.007812825275017275, 9.365694559292665e-05, 158225000000
-0.17479871153294768, 0.10186504484977407, -0.0002743386291371256, 158230000000
0.07476660527204461, -0.13351901245687106, 6.584942007583603e-05, 158235000000
-0.16405996893525066, 0.11429176482643637, -0.0003325655924219378, 158241000000
0.1540544832926807, -0.2627096836376328, -0.0003652371695310277, 158246000000
-0.07653684271184158, -0.013399014933765632, 5.18598615887823e-06, 158251000000
-0.18446796550512634, 0.112150458451705, -0.0005022438288915271, 158256000000
0.08627017118177478, -0.18043351321995782, 3.277028950542533e-05, 158261000000
-0.1817532044481368, 0.1696415000256426, -0.00017316060134246855, 158266000000
-0.07910274189597735, -0.02693843777522901, -0.0004913946413685897, 158271000000
0.046104968462557044, -0.09946788252563696, -0.0001324565622260907, 158276000000
-0.24438418315386537, 0.17150769590586604, -0.00018806079396771933, 158281000000
-0.043754344805595806, -0.028416888382419903, -0.0005388182164556934, 158286000000
0.02960425078214241, -0.0656814233508544, -0.0002597033309492042, 158291000000
-0.17910837066643598, 0.08504283572893087, -0.0002557165639765153, 158297000000
0.061221576718867576, -0.1154518406397502, -0.0003791079792500889, 158302000000
-0.19556620458714302, 0.158898996786458, -0.00025831087015732953, 158307000000
-0.07191456106806932, -0.055391833177061256, -0.00032139575528732073, 158312000000
0.08081495182278439, -0.15087458663206957, -3.789746099246461e-05, 158317000000
-0.1945602489214772, 0.1414117312462945, -0.00010074195853600785, 158322000000
-0.04259514545342894, -0.015510842991743557, -5.517075287960865e-05, 158327000000
0.09166914896797233, -0.1192816938026107, -0.0001227991200762077, 158332000000
-0.16941095087481575, 0.10377415387903412, -6.594455348745897e-05, 158337000000
-0.04889978215864784, -0.0020431507039246587, 0.000123480848542229, 158342000000
0.05190203144023494, -0.10737844365578346, -0.0003761877268878191, 158347000000
-0.1474727559132846, 0.09817075284872863, -6.800650112021915e-05, 158352000000
-0.036832949315710156, -0.01168911732253913, 0.0001058537290313767, 158357000000
-0.06569829056295363, -0.02943511583012951, -0.00016317788332168996, 158362000000
0.057064368927470445, -0.13629478763104363, -7.51842525739422e-05, 158367000000
-0.206660629085701, 0.11192260802966425, 6.642863290681232e-05, 158372000000
-0.06702792616910697, 0.010425411643049986, 7.337922782453383e-05, 158377000000
-0.051318778116571435, -0.008302215205698047, -0.0002433420749222139, 158382000000
-0.06680680173244906, -0.030240056513349274, -6.710995425301754e-05, 158387000000
-0.03710505450373776, -0.019588844859368685, 0.00026579166243568956, 158392000000
-0.02613958487571786, 0.021486905913497046, 0.00015479992204005586, 158397000000
-0.05590620003951867, 0.017954564687265764, 7.840152166929562e-05, 158402000000
-0.02143951464605022, 0.022570709675716498, 0.00010602924322337141, 158407000000
-0.04004330346999003, -0.004501337188655834, 0.00011074538487399407, 158412000000
-0.04274916794635674, 0.0013231633553871785, 0.0001224163187748937, 158417000000
-0.046007475699722494, -0.03529632310011581, 0.0003798783720635471, 158422000000
-0.020666874527024925, -0.008784044228794896, 0.00033138980975926124, 158428000000
-0.06399650759269537, 0.0016555937725476807, 0.000398874252402157, 158433000000
-0.08447477713921953, -0.024064373325872926, 2.2231964532519038e-05, 158438000000
-0.05254175962771128, -0.010730593110990857, 0.000308047045434787, 158443000000
-0.05757613847341809, -0.019018468596332726, 0.00021017520839518506, 158448000000
-0.056888096894627906, -0.010828220641276804, 3.237076861649043e-05, 158453000000
-0.045318230606511106, -0.021679394415206617, 0.00012771518218039027, 158458000000
-0.043479245963867215, 0.014886302655602724, 9.773798566100987e-05, 158463000000
-0.05999753836050207, -0.01134544253073774, 0.0001461330065740016, 158468000000
-0.06475925818238523, 0.0007034002678416237, -4.6442871171239856e-07, 158473000000
-0.0419288179686384, -0.01055703307936068, -5.334371280761398e-05, 158478000000
-0.050963158352218305, -0.019317173091903575, -2.5708962947321767e-05, 158483000000
-0.04915243052328201, -0.016159519483897638, 0.00044180300089368405, 158488000000
-0.030682642587266374, -0.009161648865831117, -0.000284213554431492, 158493000000
-0.04284473777900463, -0.02225374870617418, 0.00015743038702698632, 158498000000
-0.06600545067449641, -0.029303749096173327, 0.00018347177181951053, 158503000000
-0.029412622194162994, -0.018181413835320827, 0.00039709355904856444, 158508000000
-0.015992250691924843, -0.011725424674196117, 7.534374710146209e-05, 158513000000
-0.06459455676370773, -0.01224649758953962, 0.00024155158815837368, 158518000000
-0.04104057621746525, -0.019158586981521633, 0.00019440263858879882, 158523000000
-0.04332571529535415, -0.023679981670997562, 0.00041269420140206757, 158528000000
-0.08681138423258669, -0.025596112019223217, 0.00021909399081329595, 158533000000
-0.012248388488364272, -0.0023409385558181128, 0.00010297883141958435, 158540000000
-0.042590908970604614, -0.032905851227093906, 0.000319068608182378, 158547000000
-0.033904049025288374, 0.011263342747301033, 2.170602242952002e-06, 158552000000
-0.07675345316065746, -0.007671524150973911, 1.4554038369775086e-05, 158557000000
-0.04664835749360592, -0.053912475789985745, 0.000476209390524325, 158562000000
-0.07290538194763296, 0.022457686089024813, 0.00039044527048754383, 158569000000
-0.06466091803344484, -0.021489773970076717, -0.00011322887005853137, 158574000000
-0.05875807934357113, -0.007416180899410169, 0.0003243211313150104, 158579000000
-0.03987956944592467, 0.021435537400483342, -0.00032375215954524026, 158584000000
-0.026722619459736658, -0.019443897569007954, 0.0002862510588159619, 158589000000
-0.017824481439825547, -0.02690920016331634, 1.0817127760830142e-05, 158594000000
-0.08110994222666101, -0.022712366006721607, 6.59177617833626e-05, 158599000000
-0.0414744915541927, -0.04474373951816953, 3.769923006925975e-05, 158604000000
-0.04608547025258275, -0.006100668635419009, 0.0003272059636426301, 158609000000
-0.046125430266491414, -0.00017950017435896387, 0.00024388151762081377, 158614000000
-0.052968659367161414, -0.022322933355978767, 0.00013725164148497662, 158619000000
-0.056119739683431, -0.005331525476134999, 3.687443123090846e-05, 158624000000
-0.05520438469488627, -0.01070080569402658, 0.00022287808868378466, 158629000000
-0.03941657303933439, -0.00997091005602794, 0.00012177180555667608, 158634000000
-0.059973800434488904, -0.01494020236670901, 0.00010077311020608703, 158639000000
-0.051862098338069894, -0.017406445671209886, -8.830154886273691e-05, 158644000000
-0.021390189816121744, -0.00734582676609506, 2.9440193653890696e-05, 158649000000
-0.021270680189336064, -0.03500849882526917, 0.0005070526730072937, 158654000000
-0.09000202183133438, -0.04623546105087719, 0.00032630992574346224, 158659000000
-0.07330932830093888, -0.012970509791016755, 8.694895186349426e-05, 158665000000
-0.04549258256010871, 0.021318019030809505, 0.0001258814656811545, 158670000000
-0.03916061196890928, -0.025275881431776608, 0.0004825591179315943, 158675000000
-0.046793313787580205, -0.006421994431186914, 0.00037014261108313457, 158680000000
-0.04091305407018288, -0.0202338518143146, -0.0001112516331673942, 158685000000
-0.03714264858442563, 0.014466764841830565, 0.0002984202510591338, 158690000000
-0.04090995788633203, -0.01380114107837636, 0.00012401088689753182, 158696000000
-0.026761562962358567, -0.00023081547838421992, 0.00018325561351719086, 158701000000
-0.05215508303269308, -0.03740316065765892, 0.00046661748821273983, 158706000000
-0.019234456664086436, 0.021120663213678923, -0.00020369773495761907, 158711000000
-0.12199378336086875, -0.0477283462848883, 6.611034852201146e-05, 158716000000
-0.0338657707976998, 0.0072638946045559954, -0.000398418750724751, 158721000000
0.030061540524569542, 0.013836538514281923, 0.00014501332853501074, 158726000000
-0.1048824374451435, 0.0037594945811901537, 9.986149876778825e-05, 158731000000
-0.04182240042301076, -0.0307975385890032, -0.00020243860902150265, 158736000000
0.04206212994447187, 0.00028133480915556053, -0.00018806465264829792, 158741000000
-0.12844459768606434, 0.009072420275066214, -0.00019211325513443343, 158746000000
-0.0700381033964565, -0.01699202377619485, -0.00025146095000852867, 158751000000
0.004384250384920628, 0.048611511289633175, -0.00026375303444152773, 158756000000
-0.13378877668240638, -0.021205503198000283, -1.9684963497744008e-05, 158761000000
-0.03815668251328248, 0.0073344280136030835, -5.96258142631893e-05, 158766000000
0.005364527834316889, 0.006381006582828142, -0.0002779506588763519, 158771000000
-0.14202964781703697, -0.021282525760330594, -0.00012608217411923326, 158776000000
-0.0608471022204239, 0.01493396793035839, 0.0001153717370011547, 158781000000
0.026635429548941672, -0.016818599362927733, -0.00022119625646580974, 158786000000
-0.13476917694018237, -0.01792105700081633, 0.0002712972715884817, 158791000000
